aX,aY,aZ,gX,gY,gZ
1.700,-0.874,1.015,24.841,-51.331,22.461
1.857,-0.918,0.955,17.883,-51.697,-3.540
2.096,-0.856,0.899,-3.540,-44.800,-59.082
2.115,-0.775,1.003,-20.508,-31.128,-96.252
2.002,-0.717,1.171,-18.311,-15.076,-115.295
1.839,-0.649,1.306,-4.395,8.789,-125.122
1.712,-0.521,1.372,14.648,39.673,-126.221
1.606,-0.536,1.323,35.461,65.430,-116.577
1.452,-0.565,1.184,48.462,86.426,-127.380
1.178,-0.559,1.135,54.871,80.688,-155.579
0.788,-0.568,1.104,42.297,41.138,-186.096
0.429,-0.548,0.925,14.465,32.898,-208.435
-0.105,-0.531,0.901,4.456,18.616,-227.783
-0.573,-0.567,0.832,-13.245,19.043,-234.436
-0.945,-0.535,0.717,-29.236,31.921,-236.023
-1.288,-0.484,0.462,-13.123,38.757,-231.812
-1.531,-0.352,0.210,32.227,27.039,-216.553
-1.666,-0.363,-0.017,57.617,16.357,-198.975
-1.631,-0.379,-0.220,83.923,2.075,-187.256
-1.568,-0.348,-0.262,102.661,-16.174,-186.218
-1.509,-0.362,-0.173,87.524,-26.367,-191.101
-1.404,-0.346,0.063,58.350,-35.339,-203.186
-1.327,-0.292,0.438,34.302,-36.499,-208.313
-1.331,-0.296,0.858,20.447,-26.672,-190.186
-1.370,-0.349,1.243,22.217,-13.123,-148.743
-1.395,-0.497,1.401,34.058,1.404,-96.069
-1.340,-0.629,1.311,36.499,23.987,-58.289
-1.134,-0.569,1.117,24.536,42.786,-36.987
-0.971,-0.467,0.966,9.033,53.894,-28.687
-0.902,-0.388,0.860,-8.850,59.448,-22.583
-0.841,-0.332,0.751,-19.897,56.702,-15.442
-0.731,-0.287,0.638,-18.738,46.570,-2.747
-0.674,-0.262,0.598,-9.521,29.297,8.484
-0.625,-0.271,0.599,-7.263,16.296,15.808
-0.592,-0.285,0.624,-10.193,8.118,15.503
-0.536,-0.221,0.669,-18.311,2.563,2.319
-0.528,-0.193,0.759,-19.531,-2.686,-8.057
-0.547,-0.170,0.889,-5.371,-2.625,-6.409
-0.525,-0.143,0.923,7.446,-5.066,5.554
-0.477,-0.129,0.890,14.099,-3.662,15.747
-0.406,-0.128,0.836,14.526,-7.935,18.494
-0.376,-0.135,0.820,12.268,-7.812,16.479
-0.382,-0.151,0.867,13.489,-5.371,19.592
-0.382,-0.175,0.901,14.221,-5.066,24.475
-0.376,-0.204,0.910,12.268,-3.540,29.480
-0.372,-0.238,0.896,8.118,0.244,34.180
-0.352,-0.256,0.870,2.014,4.028,39.001
-0.319,-0.240,0.837,-5.615,1.404,42.847
-0.288,-0.225,0.812,-13.000,-2.686,44.800
-0.277,-0.202,0.833,-16.357,-6.165,46.814
-0.280,-0.198,0.873,-17.761,-8.545,49.927
-0.292,-0.194,0.908,-19.653,-10.071,51.270
-0.299,-0.180,0.938,-23.071,-9.399,51.086
-0.284,-0.156,0.960,-23.560,-7.874,51.758
-0.264,-0.160,0.944,-19.348,-8.728,52.917
-0.233,-0.135,0.937,-15.381,-9.460,46.204
-0.232,-0.139,0.931,-9.583,-12.878,45.715
-0.210,-0.135,0.923,-1.587,-15.808,47.363
-0.230,-0.189,0.927,9.033,-16.357,52.002
-0.226,-0.213,0.914,15.747,-16.785,52.368
-0.221,-0.229,0.911,18.494,-20.691,51.025
-0.212,-0.228,0.892,19.653,-27.100,49.622
-0.206,-0.226,0.870,20.081,-28.992,50.415
-0.212,-0.227,0.877,18.005,-27.283,52.124
-0.204,-0.227,0.886,13.123,-24.353,51.697
-0.201,-0.218,0.882,9.399,-20.203,49.927
-0.190,-0.200,0.868,7.507,-17.151,47.546
-0.176,-0.183,0.854,7.507,-15.076,46.448
-0.167,-0.172,0.849,6.592,-14.526,45.959
-0.164,-0.166,0.841,5.005,-16.296,44.556
-0.177,-0.169,0.862,3.113,-17.639,42.969
-0.165,-0.141,0.888,-0.793,-16.907,41.504
-0.166,-0.122,0.916,-3.174,-15.503,42.114
-0.166,-0.112,0.941,-4.700,-12.634,43.213
-0.171,-0.119,0.973,-5.127,-11.230,44.556
-0.162,-0.125,0.986,-5.493,-7.874,45.410
-0.151,-0.129,0.992,-1.770,-6.348,45.471
-0.156,-0.132,0.988,0.732,-5.432,43.640
-0.163,-0.137,0.972,1.587,-0.916,41.870
-0.166,-0.138,0.959,3.235,5.798,41.992
-0.165,-0.134,0.917,4.333,9.705,40.283
-0.153,-0.122,0.867,2.930,8.972,38.025
-0.133,-0.126,0.818,0.916,5.676,36.072
-0.127,-0.131,0.784,1.099,1.892,35.217
-0.123,-0.129,0.771,1.892,-2.930,36.316
-0.131,-0.133,0.792,0.061,-5.493,37.354
-0.138,-0.143,0.821,-5.676,-5.310,38.818
-0.135,-0.137,0.846,-10.498,-5.005,39.246
-0.132,-0.129,0.872,-13.977,-4.761,39.612
-0.140,-0.117,0.892,-15.808,-3.113,39.551
-0.139,-0.104,0.894,-16.541,-1.099,39.734
-0.129,-0.094,0.879,-16.968,0.366,39.673
-0.132,-0.094,0.855,-16.479,0.549,39.124
-0.129,-0.096,0.834,-15.503,-0.977,38.330
-0.123,-0.104,0.820,-13.977,-2.319,37.781
-0.116,-0.108,0.831,-13.000,-3.418,36.621
-0.125,-0.112,0.888,-13.306,-2.808,37.109
-0.132,-0.138,0.934,-15.686,-0.671,37.170
-0.135,-0.149,0.968,-17.639,1.770,35.156
-0.137,-0.159,0.979,-16.052,2.502,34.485
-0.134,-0.157,0.985,-12.207,2.869,33.936
-0.128,-0.145,0.980,-7.874,2.441,33.691
-0.126,-0.135,0.962,-6.653,2.991,32.776
-0.115,-0.120,0.939,-8.911,4.822,31.250
-0.104,-0.110,0.918,-11.169,5.310,30.579
-0.092,-0.104,0.913,-12.207,3.540,29.175
-0.086,-0.104,0.911,-13.855,0.916,27.039
-0.088,-0.104,0.920,-15.869,0.000,24.963
-0.095,-0.108,0.929,-15.808,-1.099,24.170
-0.109,-0.119,0.929,-14.160,-1.282,23.315
-0.117,-0.121,0.918,-11.963,-1.099,22.095
-0.116,-0.120,0.897,-10.132,-2.319,22.034
-0.115,-0.129,0.878,-9.155,-3.113,22.156
-0.122,-0.143,0.871,-9.888,-1.892,21.484
-0.122,-0.146,0.858,-12.451,-0.488,19.958
-0.127,-0.149,0.862,-12.451,0.366,19.775
-0.140,-0.155,0.891,-11.475,0.244,19.287
-0.142,-0.153,0.907,-7.935,-0.732,20.264
-0.133,-0.154,0.917,-3.296,-2.380,22.034

1.547,-0.709,1.280,31.128,-78.430,22.156
1.639,-0.694,1.314,32.898,-81.360,5.615
1.802,-0.664,1.296,32.349,-80.139,-32.227
1.824,-0.578,1.286,38.879,-76.660,-78.796
1.766,-0.459,1.296,50.232,-66.833,-117.676
1.655,-0.363,1.287,57.434,-46.326,-145.874
1.496,-0.298,1.251,67.688,-22.705,-156.616
1.366,-0.232,1.171,74.829,-2.075,-156.311
1.207,-0.205,1.052,77.759,12.146,-158.447
0.967,-0.184,0.969,73.425,14.038,-172.302
0.631,-0.200,0.867,65.125,5.615,-189.514
0.257,-0.265,0.775,51.147,-11.475,-204.407
-0.109,-0.369,0.780,38.574,-28.564,-213.745
-0.466,-0.545,0.818,26.306,-36.926,-218.384
-0.781,-0.711,0.844,11.536,-38.025,-221.985
-0.995,-0.784,0.797,-3.296,-37.109,-220.764
-1.062,-0.758,0.708,-13.489,-16.479,-213.562
-1.075,-0.706,0.611,-6.042,-2.319,-195.984
-1.103,-0.711,0.552,6.348,6.165,-182.556
-1.111,-0.655,0.579,13.184,6.775,-180.603
-1.113,-0.568,0.631,4.089,9.460,-183.777
-1.104,-0.478,0.704,-12.756,13.245,-182.434
-1.066,-0.363,0.785,-20.142,11.902,-171.082
-1.024,-0.231,0.869,-18.677,3.296,-150.757
-0.990,-0.135,0.920,-13.550,0.244,-130.310
-1.015,-0.088,0.945,-3.357,3.601,-112.549
-1.051,-0.091,0.949,5.981,10.193,-94.849
-1.076,-0.118,0.929,14.648,19.531,-75.073
-1.061,-0.165,0.880,16.113,33.386,-54.626
-1.000,-0.187,0.804,10.498,43.213,-39.978
-0.928,-0.209,0.714,7.324,44.861,-26.001
-0.865,-0.221,0.633,5.554,40.039,-16.785
-0.801,-0.224,0.605,1.404,34.973,-10.315
-0.764,-0.240,0.592,-5.493,27.710,-3.784
-0.753,-0.246,0.639,-13.550,25.635,0.488
-0.730,-0.232,0.696,-21.851,26.611,5.005
-0.669,-0.214,0.726,-27.405,28.809,11.963
-0.592,-0.178,0.759,-34.607,34.973,17.944
-0.532,-0.140,0.794,-37.415,37.476,24.719
-0.461,-0.125,0.796,-33.813,32.654,31.555
-0.409,-0.114,0.799,-31.738,36.804,36.255
-0.374,-0.107,0.849,-31.860,33.875,35.828
-0.334,-0.111,0.825,-27.222,23.926,38.940
-0.316,-0.124,0.843,-21.240,22.888,42.419
-0.288,-0.127,0.865,-20.325,22.095,42.175
-0.286,-0.139,0.913,-20.630,21.729,41.138
-0.274,-0.161,0.945,-22.034,19.226,39.490
-0.264,-0.165,0.972,-18.860,15.076,38.818
-0.255,-0.167,0.998,-14.465,11.475,38.391
-0.250,-0.178,1.013,-10.498,7.690,38.513
-0.248,-0.185,1.026,-9.277,4.639,38.574
-0.253,-0.192,1.025,-10.193,3.357,38.147
-0.271,-0.191,1.023,-11.780,2.197,37.598
-0.293,-0.193,1.017,-13.733,0.671,37.964
-0.316,-0.189,1.003,-16.724,0.916,39.673
-0.311,-0.180,0.966,-18.555,2.319,42.236
-0.308,-0.167,0.943,-17.944,2.625,44.556
-0.307,-0.155,0.930,-12.695,-0.427,48.462
-0.311,-0.152,0.919,-8.301,-5.127,50.049
-0.323,-0.161,0.906,-4.761,-9.949,51.208
-0.321,-0.171,0.881,-3.418,-13.428,51.758
-0.315,-0.188,0.856,-1.526,-15.930,53.162
-0.320,-0.204,0.862,0.305,-16.663,54.260
-0.317,-0.212,0.875,1.221,-20.874,55.359
-0.299,-0.205,0.884,2.319,-23.010,57.007
-0.292,-0.191,0.927,-0.061,-20.081,57.434
-0.303,-0.205,0.967,-4.883,-14.526,55.908
-0.320,-0.209,1.010,-9.521,-9.033,55.481
-0.330,-0.223,1.031,-11.780,-6.226,56.824
-0.331,-0.226,1.037,-13.184,0.061,57.983
-0.319,-0.231,1.019,-15.381,4.333,57.983
-0.306,-0.210,0.976,-16.052,5.981,55.298
-0.291,-0.188,0.934,-14.282,6.226,53.894
-0.262,-0.169,0.875,-11.353,5.371,54.016
-0.216,-0.163,0.789,-8.545,3.662,56.152
-0.190,-0.144,0.744,-5.737,-0.793,55.969
-0.158,-0.133,0.725,-2.686,-6.042,59.509
-0.148,-0.116,0.758,1.465,-10.986,62.073
-0.156,-0.109,0.813,0.793,-12.878,62.195
-0.169,-0.112,0.862,-3.540,-11.841,60.852
-0.183,-0.125,0.899,-7.324,-9.583,60.547
-0.176,-0.132,0.896,-11.597,-6.165,59.326
-0.158,-0.140,0.872,-15.381,-4.944,57.495
-0.126,-0.138,0.847,-18.311,-6.470,54.504
-0.095,-0.131,0.838,-19.714,-8.789,51.575
-0.070,-0.139,0.843,-20.203,-10.681,49.561
-0.070,-0.142,0.856,-21.362,-11.902,46.204
-0.076,-0.151,0.883,-23.132,-11.658,44.739
-0.080,-0.152,0.894,-23.804,-10.620,45.593
-0.062,-0.150,0.890,-24.658,-7.751,46.326
-0.043,-0.128,0.884,-23.926,-5.737,46.814
-0.020,-0.111,0.879,-21.423,-6.226,46.082
-0.012,-0.115,0.885,-16.113,-9.521,45.410
-0.023,-0.151,0.902,-12.451,-13.000,48.218
-0.026,-0.168,0.908,-12.024,-13.672,42.664
-0.017,-0.188,0.907,-14.587,-8.728,39.490
-0.020,-0.207,0.893,-17.273,-9.399,36.133
-0.008,-0.213,0.890,-18.921,-9.949,32.959
-0.005,-0.214,0.898,-17.883,-14.465,28.748
-0.015,-0.208,0.896,-17.578,-15.503,26.123
-0.019,-0.198,0.900,-17.273,-5.493,29.663
-0.016,-0.181,0.894,-12.878,-2.991,33.386
-0.012,-0.157,0.884,-11.780,2.197,35.156
-0.011,-0.150,0.871,-12.329,7.385,35.583
-0.015,-0.138,0.867,-9.094,9.399,36.499
-0.003,-0.138,0.865,-6.592,7.874,36.133
-0.014,-0.127,0.869,-5.188,5.798,34.546
-0.039,-0.148,0.891,-4.211,6.287,30.457
-0.072,-0.180,0.925,-1.526,3.784,27.771
-0.082,-0.198,0.923,-4.883,2.991,24.048
-0.071,-0.202,0.905,-10.376,5.432,20.691
-0.071,-0.187,0.894,-11.719,6.042,20.264
-0.069,-0.183,0.893,-11.353,5.859,20.569
-0.071,-0.180,0.888,-11.536,4.883,19.226
-0.079,-0.177,0.896,-12.146,3.906,17.700
-0.083,-0.180,0.897,-10.742,2.502,17.517
-0.087,-0.176,0.895,-8.179,1.648,18.677
-0.089,-0.179,0.891,-5.981,2.014,20.691
-0.102,-0.170,0.909,-3.174,0.488,21.301

1.627,-0.551,1.500,24.292,-2.136,18.250
2.001,-0.721,1.609,36.438,-3.235,1.526
2.091,-0.797,1.625,47.302,-7.568,-14.648
2.109,-0.850,1.613,68.970,-15.137,-60.364
1.942,-0.845,1.545,84.839,-22.644,-97.900
1.769,-0.761,1.399,97.046,-29.480,-130.737
1.579,-0.638,1.209,112.061,-30.396,-148.865
1.393,-0.556,0.984,111.633,-26.733,-160.339
1.114,-0.463,0.772,87.036,-24.597,-175.781
0.713,-0.392,0.707,60.547,-33.447,-177.490
0.187,-0.396,0.664,29.663,-40.955,-177.002
-0.266,-0.352,0.823,0.183,-35.278,-176.514
-0.595,-0.332,0.992,-26.306,-26.306,-167.114
-0.748,-0.333,0.919,-49.805,-4.089,-157.288
-0.812,-0.339,0.725,-51.392,10.437,-150.574
-0.815,-0.302,0.472,-28.870,3.479,-144.714
-0.891,-0.291,0.261,7.568,-20.569,-140.015
-0.998,-0.367,0.212,61.707,-49.683,-126.099
-1.163,-0.518,0.259,99.670,-77.637,-112.732
-1.258,-0.624,0.342,89.294,-83.130,-111.816
-1.342,-0.576,0.521,45.715,-66.345,-118.896
-1.352,-0.485,0.709,-7.568,-40.466,-119.873
-1.331,-0.387,0.867,-41.321,-17.090,-118.103
-1.320,-0.313,1.032,-48.462,-0.366,-113.159
-1.274,-0.251,1.171,-35.950,11.292,-104.309
-1.211,-0.210,1.249,-20.813,19.104,-98.206
-1.152,-0.212,1.237,-6.409,25.208,-93.567
-1.100,-0.257,1.148,6.531,30.151,-88.562
-1.040,-0.302,1.034,21.179,35.400,-78.491
-0.958,-0.317,0.917,29.602,40.771,-68.848
-0.891,-0.312,0.834,30.273,45.654,-60.181
-0.799,-0.307,0.752,23.193,53.284,-52.185
-0.687,-0.236,0.706,14.282,58.228,-49.316
-0.592,-0.164,0.669,3.540,59.082,-45.410
-0.535,-0.137,0.657,-4.456,53.894,-35.828
-0.468,-0.118,0.640,-7.446,43.396,-26.611
-0.420,-0.083,0.661,-6.897,33.447,-16.968
-0.373,-0.061,0.683,-4.822,28.625,-6.653
-0.353,-0.040,0.736,-4.028,20.569,0.793
-0.342,-0.011,0.803,-6.409,15.869,5.981
-0.315,0.018,0.850,-11.658,14.709,7.507
-0.299,0.039,0.898,-10.132,14.893,9.216
-0.299,0.035,0.924,-6.042,15.381,10.132
-0.319,-0.007,0.936,-4.578,17.273,9.827
-0.323,-0.054,0.910,-4.883,20.203,10.742
-0.325,-0.094,0.893,-5.676,24.109,13.489
-0.329,-0.128,0.869,-4.700,23.743,18.005
-0.339,-0.148,0.847,-4.639,21.118,22.583
-0.355,-0.166,0.843,-5.249,19.226,28.809
-0.375,-0.199,0.851,-5.676,20.020,38.208
-0.368,-0.220,0.860,-7.080,21.362,46.021
-0.364,-0.217,0.896,-7.874,19.653,48.889
-0.365,-0.211,0.942,-6.958,17.517,51.758
-0.369,-0.219,0.977,-7.874,17.151,51.331
-0.375,-0.232,0.995,-5.066,18.555,49.927
-0.381,-0.238,1.006,3.113,17.273,49.927
-0.382,-0.240,0.984,10.681,13.794,49.988
-0.391,-0.250,0.956,11.963,12.268,48.584
-0.401,-0.244,0.946,8.057,9.888,46.387
-0.405,-0.240,0.925,3.357,9.521,47.729
-0.401,-0.230,0.907,1.099,9.521,52.246
-0.404,-0.222,0.883,0.854,7.263,54.138
-0.383,-0.200,0.843,0.916,5.798,55.054
-0.349,-0.175,0.795,0.977,3.601,56.824
-0.334,-0.145,0.792,1.892,-1.038,58.350
-0.325,-0.109,0.814,2.502,-3.662,57.922
-0.304,-0.082,0.840,1.465,-4.517,57.190
-0.305,-0.054,0.882,3.723,-5.737,58.044
-0.312,-0.052,0.935,9.399,-6.592,62.195
-0.299,-0.047,0.961,14.038,-6.470,63.721
-0.280,-0.052,0.955,16.418,-9.583,62.805
-0.274,-0.051,0.939,13.062,-16.052,58.838
-0.283,-0.065,0.911,6.165,-15.076,56.152
-0.276,-0.100,0.875,0.671,-6.958,58.044
-0.274,-0.132,0.860,-1.648,-0.427,63.416
-0.259,-0.145,0.833,-5.310,0.977,67.505
-0.242,-0.140,0.819,-10.071,2.686,69.336
-0.242,-0.145,0.819,-11.658,1.404,71.533
-0.232,-0.137,0.842,-10.742,1.770,73.669
-0.220,-0.130,0.853,-15.991,3.052,72.693
-0.187,-0.116,0.841,-19.958,0.549,70.923
-0.165,-0.096,0.869,-18.127,-2.808,68.298
-0.153,-0.089,0.903,-14.771,-6.653,65.125
-0.151,-0.090,0.931,-10.742,-8.850,61.401
-0.166,-0.112,0.947,-7.507,-8.423,58.777
-0.167,-0.136,0.950,-5.798,-7.324,56.885
-0.166,-0.157,0.937,-6.348,-5.188,54.443
-0.159,-0.137,0.936,-9.521,-5.005,49.561
-0.148,-0.145,0.901,-13.123,-1.038,49.011
-0.133,-0.131,0.869,-17.883,-0.732,44.617
-0.102,-0.109,0.828,-21.362,-2.136,43.884
-0.121,-0.103,0.863,-20.081,-1.099,45.288
-0.100,-0.085,0.835,-15.198,-13.550,47.668
-0.107,-0.074,0.846,-10.010,-11.108,49.927
-0.119,-0.104,0.860,-10.742,-13.733,49.622
-0.137,-0.142,0.883,-13.489,-10.010,49.438
-0.135,-0.162,0.878,-18.799,-4.700,49.561
-0.114,-0.151,0.858,-22.583,-3.967,49.255
-0.102,-0.135,0.828,-23.254,-5.127,48.523
-0.104,-0.122,0.825,-23.071,-4.761,47.302
-0.113,-0.117,0.825,-22.217,-5.615,46.814
-0.124,-0.125,0.836,-19.775,-6.348,47.729
-0.135,-0.137,0.871,-19.958,-5.859,47.363
-0.143,-0.147,0.898,-20.081,-6.287,46.875
-0.144,-0.153,0.929,-17.822,-6.958,46.753
-0.139,-0.156,0.947,-16.785,-6.897,45.532
-0.135,-0.149,0.959,-15.686,-6.714,42.908
-0.136,-0.152,0.949,-16.174,-5.676,39.917
-0.131,-0.154,0.930,-16.907,-5.371,37.354
-0.137,-0.151,0.925,-16.174,-5.249,35.278
-0.143,-0.150,0.924,-16.785,-4.517,33.752
-0.154,-0.146,0.929,-18.066,-3.052,32.349
-0.150,-0.140,0.923,-19.348,-1.709,31.311
-0.143,-0.128,0.905,-19.226,-1.465,29.907
-0.150,-0.118,0.905,-17.395,-3.052,29.724
-0.165,-0.119,0.912,-14.465,-4.333,29.785
-0.175,-0.118,0.907,-14.404,-4.089,29.419
-0.174,-0.117,0.883,-15.991,-4.578,28.625
-0.167,-0.117,0.862,-15.686,-6.714,28.931

1.299,-0.813,1.396,91.492,-17.883,118.347
1.335,-0.918,1.406,90.454,-15.869,103.516
1.437,-0.879,1.371,58.228,-6.531,44.861
1.516,-0.669,1.247,18.677,3.174,-14.038
1.483,-0.490,1.166,11.475,2.075,-51.880
1.433,-0.307,1.092,21.851,-4.639,-84.106
1.368,-0.212,1.007,43.823,-16.174,-103.149
1.208,-0.240,0.985,69.885,-30.640,-118.652
0.999,-0.309,1.015,77.026,-42.175,-134.277
0.693,-0.448,1.063,73.120,-49.133,-152.710
0.391,-0.486,1.127,60.913,-55.420,-178.040
0.225,-0.454,1.085,36.133,-54.688,-192.566
0.097,-0.463,0.963,22.583,-53.345,-196.716
0.010,-0.423,0.846,23.621,-63.477,-201.965
-0.056,-0.373,0.659,25.330,-69.824,-205.444
-0.266,-0.370,0.444,28.442,-72.754,-206.665
-0.647,-0.372,0.271,22.766,-74.341,-212.952
-1.096,-0.312,0.256,14.954,-67.932,-218.445
-1.395,-0.272,0.369,9.705,-47.607,-201.965
-1.615,-0.220,0.558,-12.329,-24.048,-186.096
-1.721,-0.133,0.674,-39.673,-7.874,-176.575
-1.653,-0.082,0.785,-40.161,4.883,-161.255
-1.542,-0.054,0.906,-15.381,10.193,-149.353
-1.459,-0.094,0.979,15.869,20.264,-139.160
-1.427,-0.225,1.008,41.504,36.804,-128.235
-1.383,-0.337,1.027,52.307,47.668,-119.202
-1.314,-0.447,0.969,45.593,59.448,-104.980
-1.252,-0.465,0.979,27.710,76.050,-90.393
-1.128,-0.407,0.972,1.648,79.895,-69.336
-0.967,-0.295,0.955,-14.832,82.092,-47.974
-0.750,-0.163,0.943,-26.367,86.609,-38.269
-0.572,-0.028,0.937,-38.574,89.111,-42.786
-0.436,0.036,0.933,-39.978,87.708,-42.542
-0.334,0.058,0.938,-25.085,69.702,-33.447
-0.278,0.011,0.918,-2.380,57.251,-18.494
-0.264,-0.069,0.905,13.550,42.969,-7.568
-0.284,-0.134,0.920,22.034,24.780,1.526
-0.352,-0.211,0.931,18.372,14.893,7.874
-0.387,-0.239,0.917,11.475,16.418,10.803
-0.386,-0.236,0.871,3.174,21.240,13.550
-0.371,-0.203,0.802,-2.686,22.156,16.602
-0.345,-0.167,0.734,-6.592,20.874,18.799
-0.326,-0.151,0.693,-9.949,14.282,20.142
-0.306,-0.138,0.672,-10.437,4.150,21.118
-0.305,-0.114,0.677,-12.024,-4.883,20.935
-0.321,-0.106,0.704,-15.137,-9.705,20.264
-0.333,-0.111,0.743,-14.832,-13.489,21.912
-0.334,-0.098,0.790,-15.137,-14.648,24.475
-0.316,-0.095,0.810,-17.883,-15.015,25.513
-0.311,-0.075,0.850,-18.921,-16.785,25.146
-0.322,-0.080,0.904,-15.686,-15.686,29.175
-0.322,-0.102,0.949,-13.672,-14.404,31.250
-0.322,-0.118,0.978,-11.902,-13.245,32.043
-0.315,-0.124,0.982,-10.620,-12.085,33.081
-0.309,-0.132,0.981,-8.850,-11.963,34.363
-0.311,-0.139,0.981,-6.714,-12.329,35.767
-0.314,-0.146,0.966,-5.798,-12.268,36.560
-0.307,-0.148,0.928,-7.507,-14.771,35.522
-0.310,-0.137,0.897,-9.766,-17.212,33.997
-0.320,-0.119,0.886,-11.292,-19.165,33.691
-0.341,-0.106,0.882,-12.024,-22.095,34.302
-0.356,-0.126,0.878,-12.268,-22.949,35.645
-0.370,-0.120,0.855,-14.160,-21.851,35.278
-0.367,-0.120,0.854,-16.113,-20.569,37.537
-0.363,-0.126,0.854,-17.944,-26.306,40.405
-0.355,-0.124,0.870,-16.846,-28.442,44.373
-0.344,-0.125,0.910,-14.099,-30.334,49.011
-0.353,-0.140,0.959,-10.498,-30.762,52.551
-0.351,-0.162,0.982,-9.521,-28.259,52.734
-0.335,-0.190,0.993,-8.484,-25.085,49.316
-0.332,-0.160,0.934,-8.484,-22.888,42.847
-0.323,-0.164,0.906,-8.484,-15.808,42.603
-0.299,-0.155,0.878,-8.301,-11.841,42.786
-0.296,-0.154,0.848,-9.766,-9.766,43.091
-0.293,-0.151,0.838,-11.536,-6.592,43.701
-0.262,-0.132,0.826,-15.015,-3.784,47.974
-0.235,-0.116,0.827,-15.503,-3.357,53.772
-0.225,-0.089,0.865,-12.634,-3.113,56.885
-0.208,-0.071,0.887,-9.705,-1.770,59.265
-0.197,-0.065,0.904,-6.470,0.549,61.096
-0.183,-0.071,0.900,-4.578,2.991,61.340
-0.179,-0.087,0.891,-2.319,5.249,62.195
-0.169,-0.105,0.874,-2.808,5.920,62.683
-0.143,-0.108,0.860,-4.395,4.578,62.683
-0.117,-0.106,0.862,-4.578,2.197,62.805
-0.113,-0.121,0.880,-4.333,1.587,63.538
-0.122,-0.141,0.902,-6.409,0.977,64.026
-0.128,-0.145,0.907,-9.766,1.587,62.988
-0.126,-0.147,0.893,-12.756,2.625,63.049
-0.118,-0.151,0.862,-16.296,4.028,63.049
-0.099,-0.139,0.838,-21.301,4.333,61.035
-0.087,-0.126,0.824,-24.658,3.723,58.655
-0.090,-0.120,0.831,-23.132,1.221,57.434
-0.095,-0.132,0.849,-20.630,-1.404,56.885
-0.110,-0.148,0.889,-18.005,-3.113,55.176
-0.121,-0.172,0.917,-16.479,-2.563,54.199
-0.124,-0.187,0.919,-15.381,-1.221,53.040
-0.117,-0.197,0.902,-13.428,-0.610,52.185
-0.110,-0.216,0.892,-13.000,-0.305,51.453
-0.117,-0.224,0.890,-13.794,-1.343,49.133
-0.110,-0.223,0.884,-16.846,-1.770,46.326
-0.110,-0.207,0.886,-19.714,-2.136,42.542
-0.114,-0.193,0.878,-21.851,-2.075,40.833
-0.113,-0.196,0.865,-23.254,-1.709,39.429
-0.118,-0.196,0.858,-23.132,-2.136,38.635
-0.121,-0.187,0.876,-21.667,-3.174,38.635
-0.117,-0.182,0.902,-21.362,-3.723,37.964
-0.119,-0.181,0.928,-19.348,-4.028,37.903
-0.128,-0.191,0.953,-16.846,-2.808,38.757
-0.124,-0.192,0.949,-15.198,-2.136,38.330
-0.125,-0.178,0.954,-12.390,-1.038,38.208
-0.130,-0.180,0.945,-10.193,2.686,38.818
-0.125,-0.178,0.920,-8.545,0.977,37.842
-0.130,-0.175,0.921,-9.216,-0.854,35.461
-0.137,-0.182,0.917,-11.597,-1.892,33.630
-0.145,-0.194,0.917,-11.475,-2.991,33.508
-0.149,-0.202,0.929,-10.620,-5.066,34.119
-0.144,-0.195,0.931,-12.146,-5.798,33.325
-0.147,-0.181,0.938,-13.123,-5.371,32.166

1.554,-0.679,1.310,46.204,-43.518,-22.461
1.589,-0.656,1.313,39.795,-37.903,-40.955
1.607,-0.589,1.279,28.870,-26.489,-72.327
1.520,-0.531,1.259,26.733,-24.414,-99.060
1.336,-0.505,1.250,33.386,-20.386,-115.967
1.186,-0.498,1.183,49.805,-11.475,-124.329
1.022,-0.486,1.064,58.289,-5.249,-134.033
0.823,-0.474,0.917,53.833,-5.981,-145.142
0.581,-0.470,0.802,46.570,-17.822,-151.123
0.303,-0.411,0.673,41.016,-27.344,-156.860
-0.017,-0.360,0.711,32.593,-32.593,-163.330
-0.294,-0.327,0.788,8.789,-30.884,-174.255
-0.483,-0.333,0.877,-14.648,-12.939,-183.228
-0.625,-0.320,0.920,-31.067,8.728,-191.895
-0.682,-0.328,0.869,-31.799,20.630,-192.383
-0.715,-0.360,0.774,-17.334,23.499,-190.125
-0.777,-0.411,0.658,6.775,16.418,-188.416
-0.870,-0.479,0.584,26.428,8.911,-184.021
-0.976,-0.521,0.559,36.194,4.150,-178.284
-1.042,-0.501,0.614,30.640,3.845,-170.349
-1.092,-0.434,0.697,13.184,4.822,-159.485
-1.109,-0.297,0.787,-2.319,10.376,-148.437
-1.115,-0.120,0.849,-10.254,15.442,-137.207
-1.075,0.023,0.782,-9.277,19.043,-122.131
-1.026,0.114,0.690,6.287,17.883,-106.628
-0.993,0.125,0.645,24.902,13.916,-92.285
-0.971,0.040,0.634,33.508,13.367,-81.482
-0.951,-0.074,0.658,28.625,14.771,-73.669
-0.898,-0.150,0.701,21.545,17.151,-63.354
-0.863,-0.231,0.778,23.499,19.165,-49.927
-0.816,-0.289,0.863,28.137,21.484,-38.574
-0.767,-0.317,0.911,27.649,23.560,-30.273
-0.701,-0.333,0.907,22.827,32.227,-23.621
-0.628,-0.342,0.873,17.639,37.292,-19.409
-0.553,-0.328,0.834,13.428,29.968,-16.235
-0.501,-0.294,0.848,11.414,19.775,-13.855
-0.459,-0.259,0.888,5.981,16.479,-11.658
-0.412,-0.206,0.910,2.625,15.076,-9.277
-0.376,-0.159,0.920,1.099,14.526,-5.981
-0.360,-0.143,0.911,1.160,13.306,-1.770
-0.336,-0.116,0.888,1.160,15.930,3.845
-0.304,-0.089,0.875,-0.854,18.433,11.169
-0.304,-0.071,0.864,-6.897,16.113,13.733
-0.296,-0.055,0.853,-14.954,18.188,14.221
-0.281,-0.057,0.858,-17.883,19.043,17.639
-0.279,-0.068,0.877,-15.503,15.930,22.522
-0.283,-0.087,0.927,-15.198,15.198,24.231
-0.289,-0.100,0.978,-14.954,15.930,26.855
-0.291,-0.129,0.992,-15.625,17.578,28.320
-0.291,-0.144,0.979,-16.174,19.592,28.259
-0.286,-0.162,0.948,-15.137,20.325,29.175
-0.287,-0.172,0.928,-11.047,18.494,31.372
-0.292,-0.174,0.915,-9.583,16.663,32.898
-0.285,-0.168,0.891,-11.597,15.625,34.241
-0.298,-0.169,0.878,-13.916,14.709,35.156
-0.307,-0.172,0.870,-14.099,11.292,36.194
-0.316,-0.182,0.884,-12.085,7.935,38.208
-0.326,-0.179,0.928,-10.986,5.493,39.368
-0.334,-0.180,0.964,-9.216,3.479,41.504
-0.333,-0.177,0.987,-8.667,2.686,42.358
-0.333,-0.167,0.997,-7.629,3.235,43.335
-0.341,-0.168,0.991,-6.775,3.845,44.312
-0.356,-0.169,0.997,-6.592,4.883,45.410
-0.364,-0.164,0.983,-8.850,6.775,45.471
-0.373,-0.166,0.960,-11.047,7.996,45.959
-0.394,-0.172,0.941,-11.780,8.850,47.913
-0.394,-0.170,0.915,-13.977,9.216,49.194
-0.389,-0.170,0.883,-15.808,8.362,50.171
-0.381,-0.153,0.865,-15.564,6.653,50.354
-0.374,-0.148,0.847,-14.465,6.104,50.415
-0.368,-0.131,0.835,-13.672,3.662,52.795
-0.360,-0.129,0.818,-12.329,2.136,52.063
-0.375,-0.123,0.799,-11.536,0.122,50.171
-0.334,-0.103,0.800,-8.728,-1.343,48.706
-0.340,-0.102,0.828,-7.568,-4.639,51.697
-0.340,-0.107,0.846,-7.568,-5.676,54.077
-0.320,-0.096,0.850,-7.935,-5.615,54.871
-0.306,-0.087,0.836,-9.277,-5.859,54.382
-0.301,-0.093,0.821,-10.498,-5.920,53.345
-0.292,-0.099,0.799,-10.620,-7.263,53.528
-0.293,-0.111,0.786,-10.437,-8.911,55.115
-0.288,-0.125,0.787,-10.620,-10.193,57.556
-0.283,-0.130,0.785,-10.742,-10.742,59.753
-0.265,-0.129,0.781,-11.230,-11.841,61.401
-0.256,-0.130,0.793,-12.024,-13.672,61.218
-0.260,-0.143,0.820,-12.268,-14.771,61.035
-0.269,-0.158,0.836,-13.062,-14.282,60.852
-0.260,-0.159,0.844,-14.526,-12.573,61.401
-0.238,-0.148,0.853,-16.296,-11.719,60.547
-0.234,-0.146,0.874,-18.494,-10.742,58.716
-0.232,-0.159,0.885,-19.104,-8.484,59.387
-0.231,-0.191,0.887,-17.639,-6.775,59.875
-0.217,-0.175,0.887,-17.029,-5.310,58.716
-0.213,-0.176,0.870,-17.273,-5.432,57.129
-0.206,-0.163,0.868,-18.372,-4.700,54.321
-0.196,-0.166,0.850,-18.005,-5.127,53.650
-0.178,-0.157,0.854,-16.541,-7.080,51.697
-0.175,-0.157,0.866,-13.977,-8.484,51.636
-0.169,-0.157,0.873,-13.245,-9.033,50.171
-0.159,-0.154,0.880,-11.963,-8.240,48.767
-0.155,-0.180,0.885,-8.118,-8.606,49.255
-0.161,-0.217,0.887,-7.812,-8.728,48.767
-0.164,-0.229,0.894,-11.841,-7.080,47.913
-0.162,-0.240,0.899,-15.747,-4.211,48.401
-0.149,-0.237,0.906,-20.569,-3.906,47.302
-0.136,-0.212,0.895,-24.475,-4.272,44.800
-0.120,-0.197,0.875,-25.757,-3.662,43.762
-0.103,-0.185,0.874,-24.536,-5.615,42.786
-0.097,-0.177,0.890,-19.592,-8.667,43.335
-0.105,-0.180,0.926,-15.686,-11.047,42.786
-0.122,-0.181,0.964,-13.367,-11.292,42.053
-0.129,-0.182,0.970,-11.719,-9.766,40.955
-0.126,-0.177,0.959,-10.742,-9.155,39.307
-0.125,-0.180,0.941,-9.338,-8.911,38.513
-0.122,-0.187,0.924,-8.545,-8.362,38.330
-0.123,-0.187,0.916,-9.583,-7.874,37.659
-0.122,-0.182,0.915,-11.536,-7.324,36.865
-0.124,-0.168,0.909,-13.123,-6.287,35.461
-0.122,-0.150,0.893,-13.123,-6.531,33.875

1.603,-0.764,1.223,-17.639,-43.030,-13.428
1.745,-0.730,1.256,-33.264,-34.546,-29.541
1.984,-0.559,1.281,-70.984,-13.000,-67.871
2.004,-0.318,1.336,-84.839,14.160,-105.164
1.850,-0.203,1.436,-63.538,40.894,-124.329
1.673,-0.148,1.464,-18.311,65.857,-128.296
1.466,-0.163,1.380,31.311,69.885,-135.559
1.178,-0.190,1.244,49.316,74.951,-154.907
0.811,-0.281,1.075,45.044,65.735,-176.575
0.356,-0.450,0.981,35.400,45.898,-194.702
-0.007,-0.521,0.807,16.357,26.794,-214.478
-0.337,-0.664,0.676,15.503,11.047,-210.022
-0.549,-0.832,0.571,22.583,5.859,-195.435
-0.702,-0.903,0.485,29.541,5.493,-189.697
-0.847,-0.896,0.416,30.823,4.883,-191.040
-0.979,-0.865,0.358,28.259,1.282,-192.505
-1.060,-0.766,0.354,32.776,-8.118,-187.927
-1.096,-0.628,0.413,45.532,-23.682,-172.974
-1.101,-0.552,0.473,44.556,-30.090,-154.175
-1.092,-0.489,0.572,33.508,-22.522,-136.108
-1.030,-0.428,0.613,28.625,-18.372,-112.183
-1.005,-0.384,0.657,38.208,-16.113,-88.562
-0.980,-0.331,0.708,47.485,-15.259,-68.604
-0.973,-0.307,0.738,57.007,-15.015,-55.847
-0.990,-0.261,0.811,63.538,-21.179,-56.946
-1.045,-0.272,0.841,59.875,-30.579,-61.523
-1.076,-0.363,0.824,59.326,-32.227,-57.312
-1.082,-0.456,0.790,62.988,-31.372,-47.791
-1.055,-0.477,0.746,55.847,-21.667,-39.185
-1.000,-0.454,0.726,35.278,5.188,-30.212
-0.926,-0.396,0.711,14.832,22.034,-22.827
-0.855,-0.333,0.724,-1.343,33.875,-16.479
-0.783,-0.275,0.750,-13.367,40.222,-9.949
-0.700,-0.213,0.763,-16.907,40.283,-3.967
-0.630,-0.154,0.798,-16.418,39.490,1.465
-0.576,-0.119,0.836,-13.489,40.527,7.080
-0.523,-0.096,0.870,-10.681,45.959,13.489
-0.465,-0.078,0.882,-9.827,46.692,18.311
-0.425,-0.062,0.917,-7.385,42.847,22.095
-0.408,-0.061,0.950,-7.141,37.964,25.024
-0.380,-0.052,0.957,-7.812,33.630,29.114
-0.348,-0.062,0.943,-12.085,30.762,30.151
-0.352,-0.061,0.948,-15.747,27.283,31.372
-0.351,-0.048,0.952,-18.677,26.550,33.020
-0.347,-0.049,0.951,-21.973,28.076,34.546
-0.341,-0.045,0.929,-24.719,29.114,32.410
-0.329,-0.031,0.882,-28.442,28.809,31.738
-0.321,-0.051,0.833,-23.987,24.780,35.583
-0.336,-0.075,0.817,-19.348,18.127,39.368
-0.346,-0.101,0.805,-15.076,11.658,43.152
-0.360,-0.131,0.800,-13.123,6.653,47.302
-0.377,-0.158,0.819,-11.963,5.371,51.392
-0.391,-0.187,0.846,-12.390,4.944,54.504
-0.400,-0.197,0.865,-13.245,2.380,56.152
-0.391,-0.194,0.881,-12.390,1.892,56.763
-0.385,-0.191,0.883,-10.254,0.977,56.946
-0.367,-0.187,0.860,-6.592,-0.732,56.885
-0.363,-0.195,0.849,-4.456,-1.282,56.030
-0.360,-0.210,0.846,-4.150,-2.563,54.932
-0.357,-0.220,0.864,-3.296,-4.639,54.260
-0.360,-0.235,0.874,-3.784,-5.737,54.504
-0.367,-0.245,0.897,-4.639,-4.822,55.908
-0.375,-0.253,0.920,-6.470,-3.174,57.556
-0.370,-0.235,0.930,-7.874,-2.991,57.922
-0.343,-0.210,0.914,-7.324,-4.395,59.204
-0.327,-0.182,0.897,-6.653,-4.700,59.509
-0.317,-0.170,0.890,-6.836,-5.493,59.326
-0.303,-0.166,0.884,-7.202,-7.324,57.922
-0.292,-0.170,0.876,-7.996,-9.644,55.847
-0.289,-0.168,0.875,-8.789,-11.353,54.199
-0.287,-0.170,0.878,-9.460,-11.780,54.077
-0.288,-0.167,0.881,-11.414,-11.658,54.260
-0.287,-0.165,0.885,-13.733,-10.437,55.359
-0.278,-0.167,0.875,-13.855,-9.155,57.434
-0.266,-0.169,0.854,-13.794,-9.460,58.594
-0.247,-0.163,0.823,-14.893,-10.498,58.228
-0.227,-0.159,0.807,-15.198,-11.719,57.739
-0.219,-0.140,0.815,-13.733,-14.099,57.129
-0.215,-0.128,0.829,-12.573,-16.174,56.885
-0.220,-0.134,0.845,-10.681,-17.029,57.190
-0.212,-0.133,0.852,-8.850,-17.334,57.617
-0.214,-0.142,0.878,-6.592,-17.334,57.678
-0.211,-0.149,0.912,-4.150,-15.930,57.617
-0.199,-0.154,0.919,-2.991,-13.977,57.068
-0.189,-0.162,0.919,-2.502,-11.414,56.396
-0.181,-0.179,0.899,-3.418,-9.033,54.993
-0.167,-0.203,0.877,-8.301,-6.409,52.368
-0.163,-0.224,0.853,-15.015,-3.967,50.171
-0.169,-0.233,0.837,-21.423,-3.723,48.218
-0.148,-0.227,0.836,-27.405,-3.174,44.983
-0.149,-0.209,0.828,-26.428,-7.629,44.373
-0.137,-0.200,0.850,-24.597,-7.812,44.006
-0.150,-0.181,0.888,-27.100,-6.470,41.626
-0.159,-0.189,0.918,-25.024,-4.578,40.710
-0.156,-0.186,0.943,-22.583,-1.221,40.344
-0.160,-0.207,0.918,-18.677,1.709,42.908
-0.129,-0.203,0.914,-18.066,8.362,43.030
-0.098,-0.159,0.915,-13.367,6.897,44.434
-0.099,-0.186,0.907,-6.714,4.456,48.035
-0.121,-0.224,0.915,-5.798,3.845,47.241
-0.136,-0.220,0.931,-6.592,3.601,44.495
-0.135,-0.214,0.935,-7.507,4.395,44.800
-0.120,-0.206,0.909,-9.705,3.601,43.457
-0.098,-0.178,0.884,-8.850,1.953,41.382
-0.085,-0.163,0.871,-4.211,-1.282,40.161
-0.095,-0.177,0.896,0.671,-4.456,38.513
-0.102,-0.184,0.914,2.258,-6.104,37.598
-0.105,-0.201,0.926,3.174,-6.653,36.743
-0.106,-0.191,0.938,0.671,-6.714,34.119
-0.104,-0.185,0.940,-1.709,-6.287,33.081
-0.107,-0.178,0.941,-3.235,-5.859,31.189
-0.099,-0.155,0.933,-4.700,-5.493,29.541
-0.092,-0.117,0.917,-4.150,-5.554,28.198
-0.092,-0.124,0.899,-1.587,-6.470,28.503
-0.102,-0.129,0.891,-1.221,-6.897,25.513
-0.108,-0.130,0.875,-1.404,-8.362,25.757
-0.111,-0.159,0.870,-0.305,-10.193,26.062
-0.139,-0.163,0.911,-0.488,-11.108,24.658
-0.146,-0.158,0.922,0.122,-11.719,26.672

1.565,-0.576,1.364,24.109,-50.659,-48.767
1.625,-0.626,1.417,19.409,-46.082,-57.129
1.670,-0.653,1.439,10.986,-33.569,-71.106
1.554,-0.596,1.455,12.817,-18.066,-83.557
1.408,-0.520,1.358,11.230,3.723,-91.980
1.329,-0.491,1.055,10.925,22.827,-90.576
1.233,-0.493,0.743,31.372,25.269,-86.609
1.069,-0.634,0.633,59.082,13.733,-83.069
0.780,-0.798,0.640,78.186,8.301,-84.839
0.453,-0.917,0.667,80.811,20.630,-92.896
0.177,-0.917,0.709,64.087,38.513,-106.567
-0.032,-0.667,0.642,34.729,44.312,-126.587
-0.071,-0.316,0.549,9.094,47.180,-140.015
-0.127,-0.013,0.497,-8.484,46.387,-155.701
-0.280,0.169,0.579,-23.071,41.321,-179.626
-0.437,0.160,0.714,-30.640,36.865,-198.975
-0.560,0.069,0.752,-26.001,26.794,-205.627
-0.683,-0.161,0.743,1.831,9.949,-192.749
-0.749,-0.323,0.687,31.677,-5.920,-179.626
-0.840,-0.479,0.602,52.307,-26.001,-162.720
-0.965,-0.576,0.597,65.063,-47.485,-146.057
-1.089,-0.565,0.601,51.636,-53.345,-141.052
-1.184,-0.536,0.573,20.264,-48.279,-139.587
-1.171,-0.381,0.574,-7.019,-41.382,-138.977
-1.161,-0.262,0.564,-31.433,-20.691,-132.812
-1.168,-0.201,0.591,-42.908,2.502,-123.474
-1.194,-0.162,0.728,-37.720,12.329,-107.849
-1.232,-0.196,0.903,-32.410,18.005,-94.299
-1.247,-0.227,1.035,-29.785,24.353,-85.815
-1.228,-0.288,1.074,-19.836,31.311,-74.036
-1.146,-0.354,1.019,-11.047,36.865,-64.209
-1.095,-0.418,0.953,-3.174,41.870,-53.833
-1.033,-0.464,0.868,4.700,39.429,-43.091
-1.000,-0.487,0.805,8.179,31.494,-33.081
-0.966,-0.517,0.746,4.639,25.757,-21.179
-0.963,-0.532,0.747,6.714,13.611,-5.005
-0.945,-0.503,0.800,2.075,9.033,8.972
-0.875,-0.428,0.844,-11.353,12.695,18.372
-0.771,-0.335,0.847,-19.226,15.747,26.550
-0.667,-0.246,0.852,-19.043,12.939,31.982
-0.568,-0.186,0.856,-14.709,4.822,33.691
-0.513,-0.109,0.916,-9.277,1.404,31.982
-0.492,-0.106,0.951,-2.380,-0.854,35.706
-0.468,-0.100,0.955,7.935,-3.906,36.255
-0.466,-0.120,0.972,17.944,-4.944,39.917
-0.469,-0.151,0.971,23.193,-5.127,44.312
-0.476,-0.194,0.951,22.644,-2.136,48.096
-0.467,-0.228,0.922,16.541,1.587,52.002
-0.446,-0.242,0.894,8.301,6.409,56.213
-0.417,-0.238,0.861,1.709,10.681,60.303
-0.385,-0.224,0.848,-4.822,12.512,61.523
-0.354,-0.198,0.843,-9.460,11.047,60.608
-0.343,-0.187,0.836,-10.315,9.399,60.486
-0.337,-0.195,0.838,-8.972,7.324,60.425
-0.333,-0.167,0.838,-10.315,2.991,58.960
-0.327,-0.190,0.831,-8.850,0.977,61.584
-0.340,-0.188,0.855,-7.874,-1.526,61.096
-0.331,-0.199,0.860,-7.812,-3.418,63.538
-0.325,-0.212,0.880,-6.836,-4.700,65.674
-0.302,-0.194,0.882,-7.996,-4.517,66.223
-0.281,-0.185,0.868,-7.019,-4.211,70.435
-0.280,-0.188,0.856,-3.723,-3.906,73.608
-0.267,-0.185,0.847,-4.272,-2.502,75.317
-0.240,-0.169,0.836,-7.874,-3.906,74.036
-0.251,-0.156,0.860,-12.085,-6.897,75.989
-0.229,-0.143,0.872,-17.761,-6.714,69.458
-0.209,-0.137,0.879,-16.235,-6.958,69.153
-0.211,-0.146,0.912,-11.902,-9.033,66.467
-0.219,-0.164,0.940,-6.836,-9.766,65.918
-0.220,-0.196,0.941,-2.930,-7.629,66.345
-0.219,-0.216,0.916,-4.883,-4.578,65.369
-0.202,-0.234,0.872,-9.277,-2.197,63.232
-0.192,-0.235,0.859,-9.155,-1.953,63.171
-0.173,-0.243,0.843,-10.864,-2.319,64.026
-0.158,-0.237,0.841,-13.855,-3.479,61.646
-0.147,-0.217,0.829,-15.259,-5.554,61.096
-0.146,-0.211,0.828,-14.282,-7.996,61.279
-0.144,-0.202,0.838,-13.489,-10.620,59.814
-0.139,-0.170,0.848,-12.756,-11.780,57.434
-0.134,-0.152,0.859,-10.132,-12.634,54.504
-0.129,-0.128,0.869,-6.042,-15.076,51.575
-0.125,-0.126,0.873,-0.977,-16.907,50.903
-0.123,-0.126,0.877,1.648,-15.930,48.523
-0.130,-0.135,0.886,3.723,-16.907,47.058
-0.133,-0.153,0.878,4.272,-17.029,46.265
-0.138,-0.183,0.875,2.197,-14.587,45.959
-0.139,-0.208,0.873,-0.610,-11.780,46.509
-0.132,-0.237,0.862,-4.883,-9.155,47.791
-0.120,-0.240,0.855,-10.254,-6.653,47.485
-0.107,-0.233,0.855,-13.611,-6.165,48.828
-0.093,-0.204,0.868,-14.587,-7.507,49.744
-0.090,-0.181,0.883,-14.465,-8.301,49.438
-0.082,-0.171,0.879,-14.587,-9.155,47.485
-0.104,-0.181,0.878,-12.817,-12.390,46.814
-0.091,-0.158,0.873,-9.155,-14.160,42.664
-0.065,-0.145,0.866,-6.226,-16.052,39.978
-0.078,-0.134,0.897,-0.488,-19.104,36.255
-0.092,-0.135,0.920,4.822,-18.982,33.630
-0.095,-0.142,0.914,7.507,-18.616,30.884
-0.089,-0.146,0.890,9.338,-19.226,28.992
-0.089,-0.157,0.890,10.193,-18.799,27.527
-0.089,-0.153,0.887,6.836,-19.165,24.292
-0.083,-0.152,0.886,1.770,-19.348,20.874
-0.088,-0.147,0.888,-1.221,-19.653,18.616
-0.081,-0.147,0.878,-2.319,-19.714,19.043
-0.065,-0.133,0.873,-3.601,-20.020,18.677
-0.046,-0.111,0.871,-4.211,-18.677,17.700
-0.048,-0.110,0.889,-1.770,-16.724,18.311
-0.054,-0.123,0.908,3.235,-14.343,21.179
-0.046,-0.125,0.917,4.395,-10.681,21.301
-0.026,-0.118,0.911,6.287,-8.606,19.592
-0.033,-0.115,0.914,11.292,-10.925,17.090
-0.037,-0.133,0.907,12.085,-14.465,14.282
-0.053,-0.150,0.921,9.277,-14.099,11.414
-0.073,-0.165,0.937,3.906,-12.939,9.033
-0.091,-0.174,0.942,-2.625,-11.902,7.751
-0.104,-0.184,0.930,-7.935,-10.376,7.935
-0.105,-0.175,0.930,-12.695,-6.470,9.155
-0.090,-0.153,0.926,-17.273,-2.808,10.193

1.431,-0.637,1.447,29.724,-42.725,29.175
1.483,-0.664,1.432,26.367,-30.701,17.212
1.562,-0.684,1.346,17.822,-4.028,-8.789
1.547,-0.621,1.260,12.695,18.860,-37.048
1.523,-0.526,1.113,20.203,38.025,-63.782
1.450,-0.426,1.000,44.373,47.485,-82.275
1.321,-0.520,0.906,67.505,49.255,-98.816
1.087,-0.618,0.944,77.209,38.025,-115.845
0.790,-0.695,0.989,60.120,30.762,-133.911
0.542,-0.687,0.969,32.043,25.818,-159.119
0.292,-0.590,1.006,14.526,19.958,-184.692
0.065,-0.454,1.021,-0.122,19.775,-211.487
-0.086,-0.240,0.890,-8.484,16.968,-230.042
-0.247,-0.154,0.750,2.380,-5.005,-227.173
-0.484,-0.153,0.604,20.935,-35.339,-215.027
-0.728,-0.196,0.452,41.626,-58.411,-200.562
-0.966,-0.292,0.313,59.265,-71.777,-190.796
-1.167,-0.359,0.261,60.608,-79.712,-185.791
-1.267,-0.402,0.250,44.373,-73.486,-182.312
-1.285,-0.368,0.282,13.123,-57.922,-184.265
-1.283,-0.318,0.396,-12.451,-44.128,-181.519
-1.247,-0.259,0.620,-12.207,-40.588,-170.593
-1.194,-0.240,0.842,-4.333,-39.917,-155.457
-1.146,-0.260,0.994,-0.610,-36.743,-141.907
-1.110,-0.311,1.109,1.099,-24.719,-127.258
-1.030,-0.352,1.148,0.977,-7.507,-115.845
-0.970,-0.363,1.167,4.150,8.057,-105.652
-0.936,-0.380,1.183,4.700,23.865,-96.497
-0.873,-0.371,1.173,-1.038,40.466,-84.656
-0.843,-0.333,1.079,-11.963,53.162,-63.965
-0.739,-0.266,0.854,-18.005,58.044,-46.143
-0.670,-0.233,0.706,-10.010,52.795,-30.762
-0.660,-0.212,0.660,-1.587,40.161,-19.836
-0.671,-0.223,0.654,-2.258,30.762,-12.390
-0.672,-0.246,0.664,-6.531,28.015,-5.432
-0.646,-0.238,0.699,-7.324,23.865,0.610
-0.600,-0.193,0.752,-4.761,17.090,6.836
-0.564,-0.160,0.815,-5.188,13.550,11.169
-0.538,-0.152,0.875,-4.639,11.902,13.062
-0.509,-0.130,0.932,1.404,9.521,15.869
-0.496,-0.137,0.972,6.897,5.554,21.118
-0.468,-0.134,0.980,7.141,7.507,23.437
-0.444,-0.139,0.972,6.287,9.766,24.597
-0.428,-0.142,0.964,7.751,9.277,25.085
-0.415,-0.150,0.960,7.019,10.681,25.574
-0.405,-0.163,0.941,2.502,13.855,25.574
-0.387,-0.166,0.912,-2.869,15.564,27.527
-0.356,-0.148,0.878,-6.897,17.090,30.579
-0.309,-0.133,0.847,-10.498,15.381,33.569
-0.293,-0.117,0.836,-14.160,10.010,36.011
-0.298,-0.105,0.838,-12.390,3.662,37.231
-0.295,-0.097,0.864,-6.470,-2.014,39.185
-0.312,-0.097,0.905,-2.563,-3.601,41.260
-0.338,-0.106,0.950,0.000,-5.249,42.969
-0.368,-0.124,0.968,0.305,-6.470,44.556
-0.393,-0.156,0.982,-2.686,-3.601,46.082
-0.398,-0.164,0.973,-7.324,-0.427,46.448
-0.397,-0.162,0.955,-10.559,2.319,47.241
-0.406,-0.182,0.939,-12.329,3.357,48.645
-0.425,-0.204,0.935,-13.306,3.967,49.316
-0.430,-0.221,0.933,-17.151,5.981,50.415
-0.410,-0.230,0.909,-20.508,5.859,51.270
-0.385,-0.209,0.899,-19.592,3.540,52.490
-0.347,-0.202,0.891,-16.968,0.610,54.993
-0.329,-0.200,0.896,-10.498,-3.784,59.998
-0.328,-0.212,0.926,-2.441,-8.484,66.040
-0.306,-0.211,0.940,1.099,-10.315,68.054
-0.271,-0.196,0.922,3.357,-10.193,65.796
-0.232,-0.196,0.877,5.798,-10.071,62.805
-0.220,-0.208,0.836,12.451,-10.620,60.425
-0.220,-0.218,0.821,17.212,-12.207,58.228
-0.212,-0.228,0.805,18.188,-13.733,59.265
-0.223,-0.237,0.822,17.944,-14.282,61.401
-0.214,-0.221,0.852,17.395,-14.221,64.636
-0.189,-0.191,0.856,12.268,-12.451,65.491
-0.166,-0.154,0.869,6.165,-10.681,66.345
-0.149,-0.122,0.874,0.793,-10.132,65.430
-0.134,-0.102,0.882,-3.540,-9.399,64.636
-0.126,-0.095,0.896,-5.737,-9.155,63.965
-0.125,-0.083,0.909,-6.531,-8.484,64.270
-0.108,-0.075,0.911,-5.737,-8.667,65.735
-0.098,-0.073,0.893,-5.005,-8.972,66.284
-0.100,-0.085,0.874,-7.751,-8.484,64.941
-0.103,-0.101,0.858,-10.620,-8.484,63.538
-0.097,-0.113,0.848,-12.085,-9.155,63.110
-0.098,-0.115,0.862,-13.245,-9.338,62.805
-0.094,-0.117,0.882,-15.076,-7.874,62.622
-0.097,-0.109,0.875,-17.761,-6.531,61.829
-0.075,-0.092,0.861,-18.799,-6.592,59.021
-0.049,-0.078,0.851,-17.578,-8.240,57.617
-0.039,-0.076,0.857,-17.822,-9.033,54.077
-0.039,-0.094,0.863,-15.320,-9.888,53.284
-0.046,-0.114,0.880,-13.794,-10.498,52.368
-0.056,-0.132,0.879,-16.541,-9.399,50.598
-0.060,-0.132,0.874,-18.127,-9.216,49.255
-0.056,-0.117,0.881,-20.325,-8.972,47.424
-0.046,-0.104,0.888,-20.996,-8.850,45.105
-0.036,-0.084,0.894,-18.555,-9.216,43.152
-0.026,-0.069,0.905,-15.686,-9.277,40.649
-0.023,-0.055,0.889,-10.742,-9.766,37.598
-0.025,-0.057,0.874,-5.188,-10.498,35.583
-0.031,-0.092,0.853,-1.343,-11.902,34.241
-0.052,-0.146,0.848,0.366,-12.390,33.813
-0.076,-0.192,0.856,-3.967,-10.864,33.447
-0.086,-0.218,0.862,-12.939,-8.240,33.813
-0.084,-0.202,0.888,-20.630,-5.920,32.898
-0.089,-0.174,0.924,-24.536,-3.723,32.837
-0.086,-0.156,0.929,-24.963,-2.014,31.555
-0.069,-0.127,0.930,-23.682,-0.366,27.649
-0.070,-0.148,0.919,-19.287,-1.709,29.480
-0.063,-0.143,0.906,-14.893,-1.465,19.714
-0.071,-0.160,0.902,-12.268,-2.075,21.851
-0.069,-0.170,0.892,-11.353,-3.723,22.705
-0.071,-0.164,0.896,-7.141,-5.249,21.851
-0.046,-0.180,0.933,0.427,-2.441,34.241
-0.083,-0.208,0.906,5.432,-5.981,30.212
-0.109,-0.212,0.921,8.728,-9.399,29.236
-0.130,-0.257,0.889,5.127,-5.737,31.616
-0.123,-0.281,0.878,1.404,-5.310,33.630

1.909,-0.663,0.985,23.926,-52.734,94.910
2.158,-0.768,0.900,28.870,-58.044,87.524
2.308,-0.913,0.846,21.118,-53.467,44.067
2.373,-0.892,0.778,-8.423,-49.072,-19.592
2.242,-0.801,0.955,2.380,-47.424,-68.054
2.043,-0.716,1.095,11.536,-40.588,-102.112
1.877,-0.653,1.085,23.437,-36.438,-126.892
1.685,-0.637,1.046,24.475,-33.813,-150.269
1.329,-0.743,0.963,13.000,-38.086,-179.382
0.883,-0.801,1.012,4.578,-38.086,-217.651
0.456,-0.673,1.119,-19.836,-41.931,-248.108
0.092,-0.462,1.354,-53.589,-42.419,-270.813
-0.209,-0.380,1.422,-77.637,-28.381,-278.748
-0.436,-0.366,1.356,-83.130,-0.549,-278.809
-0.538,-0.294,1.134,-40.649,3.723,-265.259
-0.597,-0.416,0.678,13.000,14.587,-237.244
-0.781,-0.672,0.441,84.045,-18.250,-219.666
-1.060,-0.966,0.223,147.888,-81.787,-201.721
-1.307,-1.230,0.183,154.724,-103.638,-174.805
-1.489,-1.228,0.318,88.501,-111.938,-167.542
-1.561,-0.969,0.590,1.709,-86.365,-166.382
-1.604,-0.652,0.923,-63.049,-38.208,-153.015
-1.542,-0.378,1.167,-73.486,-8.728,-131.897
-1.470,-0.185,1.311,-54.504,14.832,-106.750
-1.371,-0.147,1.301,-23.315,40.100,-82.520
-1.236,-0.153,1.150,1.648,60.364,-71.106
-1.169,-0.211,0.997,21.729,75.195,-59.448
-1.036,-0.293,0.858,38.757,87.341,-39.856
-0.949,-0.377,0.773,32.593,98.022,-22.400
-0.865,-0.398,0.750,9.399,106.079,-8.057
-0.734,-0.343,0.752,-15.442,106.812,3.296
-0.603,-0.227,0.801,-33.936,121.338,12.756
-0.479,-0.098,0.888,-45.471,111.694,18.616
-0.371,-0.011,0.956,-46.997,104.248,24.902
-0.268,0.029,0.998,-39.490,99.854,24.231
-0.201,0.057,1.041,-35.706,88.318,15.137
-0.164,0.024,1.054,-28.259,74.768,8.789
-0.170,-0.031,1.076,-18.311,72.021,7.874
-0.183,-0.093,1.096,-10.010,72.937,6.348
-0.173,-0.117,1.069,-6.348,72.998,4.395
-0.189,-0.124,1.036,-6.470,69.031,2.258
-0.192,-0.127,0.990,-8.423,66.101,1.831
-0.185,-0.136,0.931,-11.841,62.805,1.282
-0.193,-0.147,0.879,-13.062,52.124,-0.183
-0.208,-0.153,0.853,-13.733,41.504,0.244
-0.208,-0.147,0.814,-14.038,31.921,2.441
-0.210,-0.142,0.790,-10.864,22.095,7.080
-0.232,-0.169,0.782,-7.812,13.062,11.841
-0.279,-0.195,0.826,-8.789,7.935,10.803
-0.313,-0.212,0.842,-12.146,4.822,10.620
-0.320,-0.200,0.840,-15.076,3.967,10.681
-0.351,-0.206,0.836,-16.479,2.197,13.245
-0.378,-0.211,0.846,-16.113,4.456,13.428
-0.385,-0.214,0.832,-15.015,3.357,14.465
-0.407,-0.202,0.833,-14.038,2.930,15.259
-0.418,-0.208,0.844,-14.465,3.418,17.456
-0.425,-0.208,0.863,-13.794,2.380,18.982
-0.437,-0.213,0.883,-11.047,0.000,21.301
-0.451,-0.224,0.896,-7.812,-1.892,23.987
-0.466,-0.229,0.905,-4.150,-3.906,27.161
-0.480,-0.229,0.907,-1.892,-5.371,30.396
-0.489,-0.231,0.918,-1.648,-5.615,32.959
-0.497,-0.231,0.932,-1.953,-5.554,34.607
-0.508,-0.231,0.931,-1.709,-5.554,35.767
-0.510,-0.240,0.925,-1.343,-3.540,37.476
-0.504,-0.246,0.918,-1.526,-2.258,39.551
-0.493,-0.256,0.906,-0.854,-0.793,42.847
-0.480,-0.265,0.880,-0.916,0.183,47.302
-0.453,-0.256,0.840,-3.662,1.404,51.270
-0.431,-0.231,0.833,-4.272,1.099,55.176
-0.408,-0.205,0.835,-0.916,0.183,58.411
-0.393,-0.187,0.846,2.014,-0.610,61.035
-0.376,-0.185,0.843,2.991,-0.183,63.416
-0.356,-0.173,0.833,2.869,-0.122,64.880
-0.335,-0.156,0.829,3.113,-1.343,67.627
-0.324,-0.146,0.840,6.165,-3.113,70.251
-0.313,-0.138,0.847,9.460,-4.639,72.449
-0.308,-0.143,0.847,7.996,-3.723,73.242
-0.292,-0.134,0.827,4.395,-2.136,72.083
-0.270,-0.150,0.790,2.136,-1.343,72.388
-0.253,-0.163,0.781,1.526,-4.150,70.618
-0.247,-0.175,0.783,-0.427,-7.080,67.993
-0.233,-0.192,0.777,-2.625,-9.094,66.956
-0.225,-0.201,0.788,-3.174,-11.597,67.078
-0.206,-0.193,0.792,-7.019,-13.672,66.284
-0.187,-0.184,0.796,-12.085,-14.343,63.782
-0.165,-0.172,0.812,-13.794,-15.442,62.195
-0.160,-0.158,0.842,-12.512,-17.151,59.937
-0.155,-0.162,0.863,-9.644,-19.348,59.387
-0.145,-0.161,0.865,-5.432,-21.729,59.143
-0.139,-0.155,0.869,-0.183,-23.743,59.326
-0.142,-0.145,0.894,5.493,-24.719,61.768
-0.157,-0.176,0.920,5.737,-23.743,65.430
-0.172,-0.198,0.935,3.906,-21.240,63.782
-0.162,-0.183,0.937,2.441,-17.944,64.697
-0.191,-0.207,0.940,-0.977,-13.794,67.200
-0.170,-0.187,0.939,-2.319,-10.681,65.796
-0.164,-0.183,0.927,-2.136,-9.766,65.491
-0.146,-0.164,0.887,-3.418,-8.301,62.256
-0.138,-0.155,0.835,-1.099,-8.484,62.805
-0.128,-0.169,0.804,6.470,-12.085,65.430
-0.139,-0.172,0.824,9.277,-14.099,64.575
-0.151,-0.176,0.844,8.362,-15.625,63.354
-0.159,-0.172,0.867,8.789,-16.602,62.134
-0.148,-0.165,0.869,6.958,-18.799,58.960
-0.145,-0.144,0.882,5.066,-19.897,55.603
-0.137,-0.144,0.892,4.944,-19.897,53.894
-0.128,-0.133,0.898,5.127,-21.423,50.659
-0.124,-0.124,0.892,6.287,-22.766,46.814
-0.122,-0.120,0.887,8.484,-24.536,43.823
-0.118,-0.108,0.884,7.629,-25.208,39.795
-0.114,-0.093,0.872,4.517,-24.231,35.400
-0.097,-0.086,0.850,5.005,-24.963,33.020
-0.077,-0.081,0.838,5.310,-27.161,30.396
-0.071,-0.084,0.839,4.578,-28.809,28.503
-0.093,-0.094,0.876,4.456,-29.114,29.419
-0.097,-0.101,0.888,7.751,-29.236,32.288
-0.095,-0.111,0.891,10.437,-27.954,33.325
-0.085,-0.101,0.897,7.141,-25.635,30.762

1.840,-0.393,1.280,7.446,-31.555,-81.726
1.817,-0.361,1.386,12.695,-25.269,-87.952
1.729,-0.292,1.599,24.658,0.427,-98.999
1.613,-0.258,1.623,30.701,36.560,-112.000
1.531,-0.235,1.449,37.048,64.880,-125.427
1.408,-0.295,1.116,39.490,68.787,-130.615
1.149,-0.397,0.739,63.354,54.993,-127.441
0.769,-0.435,0.477,99.060,24.414,-129.944
0.321,-0.402,0.485,128.418,-3.601,-125.916
-0.187,-0.521,0.625,123.291,-11.719,-119.202
-0.542,-0.528,0.668,82.886,-9.460,-135.925
-0.784,-0.490,0.704,31.677,15.137,-154.846
-0.916,-0.443,0.665,-3.601,27.466,-163.269
-0.909,-0.408,0.482,-12.573,39.917,-162.415
-0.898,-0.241,0.541,-26.306,85.693,-169.250
-0.875,-0.185,0.531,-21.118,97.351,-168.030
-0.900,-0.110,0.586,-4.761,72.571,-162.842
-0.872,-0.078,0.644,18.066,38.635,-147.705
-0.892,-0.074,0.725,39.490,0.854,-133.118
-0.917,-0.094,0.802,41.809,-33.386,-123.657
-0.951,-0.064,0.826,31.555,-60.486,-119.324
-0.964,-0.029,0.894,7.751,-56.396,-118.469
-0.891,0.008,0.915,-1.465,-11.841,-114.014
-0.837,-0.036,0.828,0.488,5.432,-100.891
-0.824,-0.099,0.762,16.602,9.033,-86.670
-0.822,-0.183,0.739,33.691,7.263,-73.425
-0.834,-0.273,0.713,40.710,-0.793,-64.026
-0.881,-0.344,0.711,37.781,-2.197,-57.495
-0.896,-0.378,0.707,25.635,2.625,-51.758
-0.881,-0.378,0.712,12.451,7.385,-44.739
-0.864,-0.330,0.751,2.747,8.911,-36.377
-0.833,-0.242,0.818,-7.751,15.320,-30.884
-0.775,-0.152,0.828,-14.648,19.958,-25.635
-0.715,-0.066,0.820,-16.968,20.752,-22.949
-0.677,-0.023,0.826,-17.395,19.043,-20.630
-0.633,-0.000,0.831,-15.564,17.700,-18.311
-0.608,0.005,0.829,-12.268,15.381,-16.602
-0.576,0.001,0.835,-10.315,13.733,-12.207
-0.560,-0.034,0.822,-12.573,10.864,-5.005
-0.523,-0.025,0.790,-15.686,5.127,1.221
-0.509,-0.021,0.816,-18.433,6.104,7.568
-0.491,-0.009,0.843,-23.743,9.033,11.475
-0.470,0.026,0.864,-31.189,15.381,14.587
-0.435,0.050,0.852,-38.208,13.184,15.320
-0.406,0.063,0.850,-39.185,12.390,15.503
-0.396,0.060,0.854,-37.598,13.184,14.832
-0.404,0.037,0.867,-32.593,15.198,15.991
-0.412,0.003,0.856,-29.114,14.832,17.822
-0.410,-0.044,0.831,-26.306,14.404,20.447
-0.417,-0.083,0.821,-26.733,16.052,21.606
-0.419,-0.098,0.823,-28.259,13.306,25.024
-0.408,-0.101,0.832,-29.907,12.024,28.809
-0.402,-0.085,0.868,-30.029,10.925,31.555
-0.394,-0.073,0.911,-26.306,9.705,34.668
-0.395,-0.087,0.957,-19.897,7.446,37.292
-0.394,-0.102,0.982,-15.198,3.906,37.354
-0.393,-0.129,0.971,-13.306,3.296,36.316
-0.406,-0.173,0.962,-12.756,2.441,35.889
-0.401,-0.201,0.941,-13.794,-0.244,36.560
-0.427,-0.220,0.930,-15.686,-4.517,38.025
-0.419,-0.185,0.906,-17.700,-5.615,37.231
-0.406,-0.167,0.864,-18.311,-9.155,44.250
-0.386,-0.154,0.825,-15.991,-9.827,49.072
-0.376,-0.145,0.804,-11.230,-16.968,52.002
-0.363,-0.141,0.773,-5.493,-24.231,52.612
-0.351,-0.161,0.771,-2.380,-28.015,54.993
-0.354,-0.166,0.791,0.122,-30.029,57.251
-0.341,-0.164,0.796,0.610,-34.912,59.143
-0.330,-0.137,0.825,-2.075,-42.603,57.922
-0.326,-0.122,0.836,-4.822,-44.250,56.335
-0.307,-0.113,0.854,-9.827,-36.865,57.312
-0.294,-0.099,0.889,-9.949,-32.410,58.289
-0.287,-0.091,0.934,-7.812,-29.297,59.753
-0.270,-0.077,0.939,-7.141,-23.865,58.960
-0.232,-0.080,0.904,-5.005,-19.592,59.021
-0.216,-0.092,0.877,-3.784,-17.273,58.472
-0.208,-0.101,0.858,-4.028,-16.846,58.472
-0.198,-0.105,0.841,-3.662,-17.090,61.096
-0.192,-0.117,0.843,-3.601,-16.968,64.026
-0.178,-0.108,0.859,-7.629,-15.930,64.819
-0.166,-0.107,0.869,-14.038,-16.052,67.871
-0.155,-0.075,0.878,-17.944,-15.442,64.575
-0.133,-0.073,0.887,-15.442,-14.099,63.904
-0.136,-0.072,0.901,-13.794,-14.099,62.622
-0.136,-0.082,0.921,-12.390,-13.977,61.768
-0.125,-0.093,0.918,-12.573,-12.817,59.326
-0.108,-0.108,0.891,-12.939,-11.475,57.251
-0.099,-0.117,0.867,-12.451,-11.536,55.603
-0.106,-0.142,0.867,-11.169,-12.451,54.871
-0.114,-0.166,0.877,-11.902,-11.719,53.955
-0.121,-0.175,0.895,-15.320,-8.850,53.284
-0.119,-0.163,0.892,-18.982,-6.042,53.589
-0.112,-0.142,0.880,-21.118,-3.845,54.565
-0.105,-0.130,0.888,-22.278,-2.136,54.504
-0.101,-0.117,0.918,-20.874,-1.404,54.565
-0.111,-0.104,0.949,-18.188,-1.465,53.650
-0.109,-0.096,0.962,-15.442,-1.343,52.124
-0.096,-0.099,0.951,-12.390,-1.221,49.438
-0.104,-0.116,0.945,-7.141,-0.549,47.424
-0.112,-0.143,0.932,-4.578,0.305,46.204
-0.104,-0.160,0.912,-4.028,3.357,43.884
-0.096,-0.171,0.889,-8.911,5.859,42.664
-0.081,-0.177,0.877,-12.268,4.089,42.053
-0.087,-0.192,0.892,-10.986,-0.916,44.250
-0.085,-0.194,0.915,-15.198,-2.380,42.603
-0.078,-0.178,0.924,-20.142,-1.770,40.527
-0.063,-0.154,0.937,-21.301,-1.526,39.001
-0.066,-0.136,0.960,-19.653,-2.136,37.415
-0.071,-0.117,0.978,-17.700,-2.014,34.485
-0.081,-0.114,0.989,-14.832,-1.709,31.616
-0.080,-0.117,0.981,-10.010,-1.831,29.663
-0.079,-0.125,0.952,-5.066,-1.404,27.649
-0.066,-0.137,0.917,-1.099,-1.221,24.719
-0.072,-0.155,0.905,0.916,-2.136,24.048
-0.096,-0.190,0.892,0.793,-2.869,23.560
-0.097,-0.208,0.890,-1.343,-3.967,23.254
-0.106,-0.219,0.890,-6.714,-5.249,24.902
-0.109,-0.214,0.885,-13.611,-5.005,24.780
-0.087,-0.193,0.878,-18.860,-4.944,24.536

1.829,-0.609,1.132,39.856,-31.799,13.062
2.112,-0.675,1.192,26.184,-24.475,-17.334
2.219,-0.692,1.290,2.686,-8.789,-49.988
2.146,-0.626,1.383,0.549,5.737,-71.777
1.993,-0.489,1.459,6.409,28.381,-83.740
1.839,-0.364,1.376,0.793,54.565,-97.107
1.626,-0.263,1.253,2.502,65.430,-109.741
1.368,-0.215,1.153,11.414,65.796,-119.385
1.036,-0.273,0.959,17.212,41.138,-132.751
0.662,-0.351,0.873,36.194,6.042,-150.146
0.215,-0.436,0.823,44.128,-17.883,-162.903
-0.219,-0.460,0.779,38.452,-21.851,-173.340
-0.528,-0.493,0.723,16.235,-8.118,-181.213
-0.792,-0.581,0.658,-1.892,3.418,-178.467
-0.956,-0.599,0.635,-4.883,6.165,-169.739
-1.034,-0.521,0.586,1.099,0.427,-161.011
-1.053,-0.450,0.526,11.292,-6.836,-154.480
-1.036,-0.411,0.520,23.743,-15.686,-148.865
-1.016,-0.396,0.588,35.095,-24.902,-139.771
-1.004,-0.410,0.696,38.757,-19.165,-127.808
-0.964,-0.400,0.770,32.043,-11.841,-118.591
-0.911,-0.378,0.826,22.034,-3.662,-112.732
-0.844,-0.334,0.834,13.611,3.723,-111.267
-0.795,-0.296,0.814,11.719,5.066,-110.657
-0.727,-0.249,0.765,13.062,5.859,-107.239
-0.691,-0.227,0.757,15.930,3.174,-102.966
-0.672,-0.244,0.734,16.846,2.258,-95.825
-0.662,-0.293,0.723,18.188,4.150,-86.304
-0.656,-0.311,0.755,13.733,5.066,-81.360
-0.642,-0.310,0.796,8.179,6.226,-76.172
-0.619,-0.313,0.829,3.967,6.836,-70.435
-0.596,-0.295,0.864,2.625,10.864,-65.491
-0.581,-0.266,0.892,2.502,8.118,-60.791
-0.558,-0.232,0.888,1.038,9.949,-55.420
-0.543,-0.205,0.881,-2.441,15.015,-50.354
-0.531,-0.198,0.855,-2.197,14.099,-43.335
-0.514,-0.186,0.848,0.488,13.306,-35.706
-0.505,-0.175,0.842,0.427,11.108,-29.541
-0.498,-0.175,0.844,-2.930,11.841,-23.926
-0.491,-0.187,0.851,-5.798,11.536,-17.883
-0.492,-0.181,0.871,-8.240,11.780,-12.024
-0.478,-0.171,0.890,-9.216,12.817,-6.165
-0.462,-0.138,0.914,-9.094,12.085,-1.221
-0.442,-0.107,0.933,-10.376,13.184,2.502
-0.417,-0.080,0.913,-13.123,14.160,4.761
-0.384,-0.053,0.871,-13.062,12.451,5.371
-0.373,-0.033,0.882,-7.568,8.911,6.348
-0.392,-0.051,0.886,-2.869,6.531,8.484
-0.375,-0.096,0.832,-0.793,4.761,8.301
-0.375,-0.119,0.804,1.282,0.854,10.925
-0.379,-0.161,0.796,2.625,-0.732,15.320
-0.419,-0.200,0.812,3.540,-2.197,21.545
-0.445,-0.231,0.845,1.526,-0.183,25.879
-0.450,-0.239,0.859,-6.104,1.099,29.297
-0.434,-0.214,0.865,-13.977,2.930,31.250
-0.423,-0.204,0.871,-15.747,3.479,34.241
-0.418,-0.204,0.882,-15.564,4.272,36.499
-0.420,-0.216,0.898,-16.846,3.601,37.231
-0.425,-0.245,0.921,-16.479,0.671,38.025
-0.434,-0.263,0.954,-16.296,0.427,39.185
-0.433,-0.271,0.981,-15.381,1.648,41.687
-0.417,-0.260,0.982,-15.015,2.747,42.664
-0.404,-0.250,0.965,-15.381,2.808,42.053
-0.392,-0.240,0.952,-13.306,1.953,41.199
-0.378,-0.247,0.941,-12.939,2.441,39.856
-0.400,-0.240,0.926,-11.719,2.197,36.072
-0.330,-0.197,0.927,-8.484,3.113,35.400
-0.319,-0.198,0.932,-6.165,-0.122,39.917
-0.304,-0.182,0.931,-6.287,-2.319,41.870
-0.266,-0.168,0.925,-3.052,-4.822,47.546
-0.244,-0.168,0.931,2.747,-8.789,53.223
-0.232,-0.178,0.927,8.301,-10.620,58.228
-0.223,-0.194,0.928,11.902,-11.169,62.134
-0.217,-0.202,0.912,10.193,-10.620,63.965
-0.205,-0.202,0.888,8.423,-9.705,67.444
-0.185,-0.178,0.857,5.310,-12.024,69.580
-0.165,-0.185,0.824,1.099,-15.137,75.684
-0.151,-0.156,0.828,-0.916,-18.738,73.608
-0.124,-0.139,0.830,1.404,-22.034,72.510
-0.112,-0.135,0.842,3.601,-24.902,71.472
-0.107,-0.145,0.859,5.310,-26.184,69.641
-0.118,-0.160,0.895,7.568,-25.940,68.115
-0.130,-0.174,0.909,9.460,-24.536,67.871
-0.132,-0.197,0.906,7.385,-21.179,67.078
-0.142,-0.221,0.894,0.916,-15.320,64.575
-0.127,-0.250,0.875,-3.174,-11.719,64.392
-0.109,-0.256,0.867,-6.104,-11.414,63.721
-0.096,-0.260,0.884,-8.362,-11.353,65.247
-0.084,-0.256,0.898,-9.888,-8.606,67.078
-0.078,-0.240,0.908,-11.475,-7.935,67.322
-0.056,-0.223,0.888,-12.024,-6.104,67.749
-0.049,-0.203,0.886,-11.719,-5.249,65.857
-0.042,-0.197,0.869,-11.047,-5.859,65.735
-0.029,-0.195,0.851,-7.507,-7.080,65.369
-0.024,-0.176,0.857,-1.526,-9.338,65.369
-0.006,-0.177,0.852,2.441,-12.939,64.941
-0.004,-0.168,0.864,2.136,-16.602,59.509
0.000,-0.161,0.866,0.000,-16.785,55.420
0.010,-0.160,0.872,0.732,-17.029,52.124
0.007,-0.156,0.889,4.150,-16.968,51.025
0.011,-0.169,0.894,4.150,-14.282,50.415
0.004,-0.179,0.902,1.343,-10.071,48.462
0.005,-0.188,0.903,-0.122,-5.493,49.255
0.005,-0.199,0.910,-1.465,-1.770,49.133
-0.000,-0.178,0.911,-5.798,0.732,46.997
-0.004,-0.156,0.896,-10.803,2.747,45.288
0.007,-0.118,0.853,-13.977,2.075,40.894
0.016,-0.086,0.850,-13.977,1.038,39.063
0.035,-0.078,0.851,-12.756,-0.488,37.292
0.043,-0.086,0.865,-10.559,-3.418,34.607
0.025,-0.104,0.896,-7.874,-4.211,31.616
0.000,-0.114,0.935,-6.165,-3.052,29.724
-0.013,-0.139,0.933,-7.629,-0.549,29.480
-0.023,-0.138,0.916,-11.780,2.441,27.344
-0.016,-0.143,0.897,-15.137,6.042,27.344
-0.014,-0.150,0.893,-16.846,6.348,27.832
-0.003,-0.146,0.904,-18.555,6.531,27.222
0.000,-0.142,0.928,-17.090,6.226,27.893
-0.001,-0.132,0.959,-13.245,4.822,26.733

1.945,-0.385,1.247,-9.216,-32.227,-28.015
2.464,-0.296,1.458,11.597,-29.968,-55.115
2.645,-0.274,1.637,29.541,-22.522,-59.326
2.523,-0.468,1.762,53.162,-0.671,-52.795
2.376,-0.522,1.606,62.500,27.893,-47.546
2.169,-0.392,1.180,66.833,36.011,-60.974
1.882,-0.167,0.692,69.824,15.625,-100.159
1.397,-0.008,0.456,84.106,-28.442,-141.907
0.820,-0.279,0.479,91.187,-62.744,-163.757
0.248,-0.567,0.673,50.842,-63.965,-191.223
-0.103,-0.679,0.802,0.732,-45.288,-209.106
-0.214,-0.632,0.732,-18.311,-36.560,-208.008
-0.243,-0.524,0.756,3.784,-41.199,-196.594
-0.361,-0.489,0.876,10.559,-44.983,-198.608
-0.540,-0.590,1.022,8.301,-42.847,-196.411
-0.702,-0.643,1.091,27.466,-48.340,-189.575
-0.928,-0.603,1.181,32.166,-36.621,-184.814
-1.133,-0.535,1.162,22.644,-21.057,-170.410
-1.291,-0.577,1.039,38.513,-24.109,-141.602
-1.379,-0.657,0.924,75.439,-28.442,-107.239
-1.392,-0.774,0.741,93.262,-20.325,-82.581
-1.335,-0.812,0.602,94.727,-16.296,-74.402
-1.270,-0.725,0.483,67.200,-9.033,-88.440
-1.214,-0.645,0.479,30.701,1.831,-101.196
-1.098,-0.469,0.584,17.944,3.052,-105.347
-0.981,-0.334,0.698,14.709,5.859,-99.670
-0.824,-0.285,0.720,-9.521,13.367,-99.915
-0.729,-0.243,0.780,-37.170,19.531,-103.699
-0.649,-0.174,0.818,-45.044,23.682,-104.492
-0.529,-0.087,0.884,-47.241,30.151,-87.463
-0.434,-0.014,0.964,-45.044,35.339,-66.528
-0.340,0.070,1.016,-45.349,41.016,-54.749
-0.259,0.140,1.097,-44.556,50.903,-49.744
-0.218,0.184,1.178,-48.401,59.937,-51.941
-0.201,0.118,1.150,-47.607,64.087,-45.776
-0.210,-0.008,1.058,-37.842,61.584,-40.344
-0.229,-0.117,0.951,-34.973,64.331,-38.696
-0.252,-0.210,0.859,-34.546,64.697,-35.034
-0.287,-0.252,0.828,-29.419,61.707,-28.076
-0.316,-0.274,0.838,-28.809,53.467,-21.301
-0.293,-0.230,0.818,-33.630,45.532,-16.907
-0.275,-0.167,0.810,-34.912,37.842,-13.977
-0.282,-0.130,0.840,-33.508,26.855,-10.620
-0.288,-0.109,0.900,-29.114,16.846,-7.385
-0.297,-0.098,0.939,-25.940,9.644,-4.639
-0.311,-0.090,0.960,-23.743,7.751,-2.686
-0.322,-0.089,0.948,-20.874,6.348,1.221
-0.322,-0.076,0.894,-18.799,5.432,3.723
-0.333,-0.076,0.850,-9.216,0.061,8.240
-0.366,-0.104,0.845,-0.061,-3.845,12.695
-0.400,-0.137,0.832,4.395,-5.127,16.663
-0.416,-0.190,0.793,2.014,-4.761,17.700
-0.433,-0.211,0.772,-0.549,-5.066,16.418
-0.443,-0.227,0.756,-1.282,-5.066,16.724
-0.447,-0.263,0.762,-2.258,-3.662,19.043
-0.444,-0.280,0.787,-5.432,-2.625,21.545
-0.441,-0.282,0.820,-8.057,-2.197,24.231
-0.433,-0.285,0.851,-8.606,-2.319,27.344
-0.419,-0.286,0.878,-8.728,-2.991,30.212
-0.416,-0.286,0.918,-8.362,-3.418,33.203
-0.417,-0.285,0.960,-6.287,-4.028,36.499
-0.419,-0.289,0.993,-3.418,-3.662,40.710
-0.410,-0.281,1.019,-2.563,-2.502,43.274
-0.399,-0.274,1.026,-3.174,-0.305,44.739
-0.394,-0.260,1.032,-2.380,1.648,45.776
-0.380,-0.224,1.036,0.366,3.967,46.326
-0.361,-0.188,1.004,1.770,6.287,47.852
-0.347,-0.166,0.942,1.831,7.019,47.852
-0.322,-0.133,0.893,5.188,4.456,47.791
-0.312,-0.124,0.849,11.047,-0.061,52.551
-0.297,-0.120,0.817,15.747,-4.700,55.115
-0.286,-0.142,0.797,17.334,-9.949,56.030
-0.284,-0.140,0.802,18.005,-15.015,56.274
-0.281,-0.161,0.810,17.456,-16.357,61.401
-0.277,-0.176,0.832,14.587,-17.700,64.026
-0.292,-0.209,0.878,10.986,-17.212,67.139
-0.284,-0.207,0.912,3.418,-14.404,69.275
-0.261,-0.189,0.917,-2.991,-10.071,72.083
-0.233,-0.154,0.908,-7.446,-8.301,72.693
-0.210,-0.122,0.904,-9.155,-6.592,72.144
-0.196,-0.111,0.895,-6.531,-6.714,72.510
-0.186,-0.123,0.884,-2.319,-6.165,73.242
-0.183,-0.160,0.871,-0.793,-5.005,73.181
-0.187,-0.171,0.843,-2.319,-3.967,73.914
-0.172,-0.197,0.814,-3.479,-2.319,76.599
-0.156,-0.205,0.798,-7.568,-2.441,75.684
-0.149,-0.200,0.816,-11.108,-2.625,73.730
-0.133,-0.189,0.828,-13.916,-3.723,72.571
-0.105,-0.179,0.837,-14.465,-5.005,71.655
-0.075,-0.178,0.851,-13.916,-7.141,70.007
-0.064,-0.183,0.892,-12.573,-9.644,67.200
-0.062,-0.181,0.933,-10.864,-10.803,64.209
-0.056,-0.167,0.958,-6.958,-9.888,62.439
-0.046,-0.159,0.950,-2.502,-7.935,60.425
-0.043,-0.168,0.919,0.732,-5.981,58.044
-0.050,-0.202,0.892,0.854,-3.967,57.068
-0.052,-0.237,0.873,-2.930,-1.892,57.312
-0.035,-0.240,0.856,-10.193,0.427,56.519
-0.013,-0.233,0.850,-16.296,0.854,54.688
-0.001,-0.187,0.877,-18.188,-1.160,50.781
-0.003,-0.179,0.886,-16.235,-0.244,55.359
0.000,-0.189,0.890,-13.672,-0.366,56.030
-0.004,-0.180,0.891,-10.864,-2.747,55.115
0.000,-0.177,0.895,-9.888,-3.174,53.589
0.000,-0.177,0.899,-6.958,-4.150,52.917
-0.001,-0.173,0.908,-5.493,-4.883,50.659
-0.004,-0.175,0.922,-4.944,-5.859,48.218
-0.015,-0.185,0.950,-2.563,-6.470,46.692
-0.020,-0.193,0.964,-0.122,-5.676,46.082
-0.029,-0.204,0.940,0.610,-4.028,47.424
-0.033,-0.221,0.904,1.587,-4.761,49.805
-0.066,-0.243,0.895,-1.770,-6.409,56.213
-0.066,-0.221,0.866,-7.446,-5.432,53.284
-0.051,-0.203,0.855,-9.644,-5.005,50.598
-0.058,-0.176,0.871,-13.123,-5.859,47.241
-0.061,-0.153,0.886,-13.794,-5.737,43.335
-0.059,-0.141,0.887,-12.451,-6.958,40.100
-0.058,-0.141,0.880,-11.292,-8.301,36.011
-0.053,-0.119,0.886,-8.850,-11.780,30.457

1.696,-0.681,1.353,26.245,11.230,2.380
2.013,-0.684,1.320,24.231,21.301,-15.930
2.202,-0.632,1.250,34.973,25.818,-37.292
2.176,-0.598,1.206,51.758,29.236,-53.162
2.037,-0.587,1.113,67.139,33.081,-66.406
1.892,-0.600,0.942,83.374,32.104,-70.251
1.668,-0.571,0.871,86.548,26.733,-82.336
1.309,-0.559,0.804,59.570,16.113,-105.042
0.837,-0.604,0.789,34.546,0.000,-133.423
0.416,-0.606,0.874,24.658,-12.512,-161.316
0.009,-0.562,0.893,10.925,-16.907,-177.856
-0.307,-0.439,0.871,-8.301,-12.878,-194.641
-0.490,-0.373,0.754,-23.987,2.197,-212.036
-0.618,-0.313,0.703,-42.480,19.958,-235.352
-0.755,-0.412,0.594,-36.926,19.592,-240.845
-0.846,-0.482,0.577,-28.076,19.897,-240.295
-1.002,-0.568,0.511,-12.146,20.203,-235.901
-1.096,-0.584,0.439,2.686,18.188,-218.445
-1.249,-0.577,0.398,21.973,14.526,-192.139
-1.386,-0.547,0.383,23.254,12.817,-164.917
-1.473,-0.492,0.428,13.184,9.583,-137.756
-1.531,-0.447,0.516,0.244,13.245,-113.037
-1.574,-0.451,0.659,-11.780,22.034,-87.646
-1.516,-0.370,0.733,-27.588,35.156,-66.406
-1.379,-0.270,0.770,-39.856,46.814,-50.842
-1.260,-0.200,0.849,-39.429,50.232,-44.617
-1.177,-0.128,0.997,-31.128,50.232,-44.373
-1.057,-0.099,1.054,-21.667,49.255,-44.373
-0.963,-0.105,1.036,-12.451,46.753,-46.692
-0.897,-0.162,0.977,0.488,42.847,-44.067
-0.848,-0.204,0.926,18.555,35.706,-38.635
-0.803,-0.230,0.866,27.039,28.992,-29.968
-0.773,-0.271,0.830,34.668,21.912,-21.301
-0.725,-0.299,0.832,39.429,16.113,-11.353
-0.740,-0.333,0.818,37.048,7.019,-2.136
-0.685,-0.332,0.783,30.273,5.554,1.465
-0.639,-0.306,0.769,21.729,3.723,7.080
-0.595,-0.281,0.757,14.404,1.953,13.550
-0.552,-0.235,0.773,8.667,1.099,17.029
-0.519,-0.197,0.788,6.409,-3.479,18.616
-0.482,-0.164,0.772,1.953,-7.629,16.968
-0.441,-0.142,0.733,-0.854,-9.460,18.494
-0.416,-0.150,0.743,0.854,-12.756,22.766
-0.410,-0.149,0.782,3.418,-19.714,26.428
-0.398,-0.139,0.819,-0.061,-22.156,28.320
-0.386,-0.156,0.848,-3.540,-24.414,31.250
-0.382,-0.163,0.888,-0.793,-25.146,34.729
-0.359,-0.162,0.900,-1.709,-22.583,36.682
-0.327,-0.142,0.906,-4.089,-20.813,37.048
-0.323,-0.138,0.938,1.953,-20.142,39.124
-0.321,-0.146,0.976,6.470,-19.043,39.673
-0.327,-0.162,0.983,7.324,-18.738,38.696
-0.334,-0.190,0.993,9.277,-17.944,38.574
-0.350,-0.217,1.007,10.681,-18.066,38.940
-0.345,-0.231,0.990,9.277,-16.907,39.551
-0.323,-0.252,0.971,4.395,-15.991,37.537
-0.330,-0.230,0.948,3.540,-18.005,35.767
-0.324,-0.216,0.942,3.174,-17.151,37.476
-0.308,-0.197,0.927,-1.526,-13.916,38.513
-0.271,-0.174,0.877,-5.066,-12.512,37.842
-0.245,-0.154,0.851,-3.174,-14.343,37.903
-0.232,-0.151,0.846,1.343,-19.043,37.964
-0.235,-0.172,0.855,5.493,-22.827,38.696
-0.244,-0.194,0.891,9.583,-24.780,39.978
-0.239,-0.202,0.912,8.362,-23.804,41.748
-0.219,-0.187,0.914,2.686,-21.851,42.358
-0.199,-0.154,0.933,-1.038,-19.775,43.274
-0.167,-0.124,0.939,-1.465,-20.020,43.457
-0.143,-0.096,0.951,2.502,-20.813,42.969
-0.123,-0.091,0.947,8.728,-20.935,43.213
-0.107,-0.080,0.915,14.526,-20.691,42.847
-0.098,-0.091,0.884,18.433,-20.447,43.213
-0.101,-0.103,0.855,21.118,-20.020,43.213
-0.112,-0.116,0.845,22.949,-19.531,44.434
-0.119,-0.125,0.844,20.996,-18.860,45.898
-0.106,-0.127,0.819,15.930,-17.761,46.631
-0.080,-0.123,0.792,11.353,-19.409,47.363
-0.074,-0.115,0.821,9.644,-18.860,48.828
-0.077,-0.117,0.861,6.592,-17.395,50.293
-0.084,-0.111,0.885,3.052,-15.198,49.377
-0.045,-0.064,0.881,2.258,-9.888,44.006
-0.043,-0.054,0.874,1.953,-9.399,45.166
-0.042,-0.059,0.860,1.343,-8.728,43.701
-0.046,-0.087,0.848,5.920,-10.010,42.419
-0.041,-0.108,0.840,9.338,-10.193,40.344
-0.024,-0.121,0.828,7.812,-10.742,39.246
-0.032,-0.122,0.840,8.240,-13.794,40.894
-0.027,-0.118,0.847,8.850,-13.306,40.344
-0.015,-0.143,0.873,13.184,-13.428,42.603
-0.026,-0.145,0.900,11.841,-13.977,45.044
-0.035,-0.145,0.906,5.188,-10.925,45.776
-0.027,-0.152,0.892,0.244,-9.399,45.898
-0.032,-0.123,0.903,-2.319,-9.399,43.213
-0.027,-0.125,0.912,-3.113,-6.775,44.617
-0.038,-0.127,0.901,-5.981,-5.249,44.678
-0.030,-0.149,0.874,-2.808,-5.249,44.006
-0.026,-0.162,0.872,6.287,-9.155,47.485
-0.031,-0.170,0.877,9.521,-11.658,45.898
-0.037,-0.187,0.886,8.301,-12.817,45.593
-0.033,-0.178,0.892,7.568,-14.893,43.030
-0.033,-0.164,0.915,7.874,-14.221,42.480
-0.039,-0.128,0.927,8.850,-13.855,45.471
-0.014,-0.125,0.917,7.690,-10.437,44.678
-0.003,-0.080,0.937,6.897,-7.385,42.236
-0.008,-0.040,0.931,9.888,-6.470,43.396
0.014,-0.042,0.925,18.433,-6.836,45.593
0.011,-0.027,0.925,23.621,-10.254,41.992
-0.000,-0.027,0.924,21.362,-10.071,38.025
-0.007,-0.029,0.924,16.907,-9.949,33.325
-0.012,-0.023,0.935,13.000,-11.414,29.663
-0.009,-0.030,0.935,9.827,-13.123,26.062
-0.011,-0.015,0.948,14.465,-16.541,26.001
-0.001,-0.019,0.953,11.414,-13.245,23.193
0.006,-0.028,0.951,3.601,-11.108,17.883
0.010,-0.032,0.944,0.061,-11.719,15.869
0.007,-0.031,0.953,-0.549,-11.902,14.648
0.004,-0.028,0.953,-0.732,-11.230,15.991
-0.001,-0.034,0.937,-4.272,-8.911,16.418
-0.003,-0.031,0.907,-4.028,-7.996,17.395

1.582,-0.455,1.464,-7.446,45.044,-58.899
1.606,-0.466,1.417,-10.864,61.401,-54.321
1.664,-0.392,1.269,-27.771,81.726,-59.570
1.735,-0.240,1.097,-47.668,86.914,-77.332
1.732,-0.206,0.851,-56.763,76.782,-98.877
1.661,-0.274,0.713,-36.682,57.251,-118.164
1.584,-0.471,0.718,-4.150,37.537,-130.310
1.422,-0.812,0.800,11.414,28.992,-135.010
1.176,-1.088,0.862,7.141,28.931,-133.301
0.965,-1.125,0.858,8.362,30.151,-125.610
0.725,-0.939,0.808,12.146,30.457,-114.929
0.556,-0.649,0.694,7.568,30.579,-112.122
0.238,-0.438,0.520,-3.418,24.597,-122.864
-0.117,-0.265,0.499,-13.184,17.273,-143.127
-0.436,-0.090,0.678,-23.071,21.362,-168.213
-0.753,-0.022,0.811,-57.190,42.480,-189.209
-0.947,-0.063,0.748,-56.274,57.434,-196.106
-1.026,-0.086,0.559,-13.000,50.598,-189.636
-1.032,-0.262,0.315,39.917,32.837,-180.481
-1.071,-0.446,0.281,78.064,6.958,-173.889
-1.154,-0.592,0.367,82.947,-15.259,-163.391
-1.171,-0.621,0.486,72.388,-14.954,-145.508
-1.136,-0.538,0.639,54.443,-9.644,-124.939
-1.042,-0.387,0.792,31.494,-2.075,-108.215
-0.973,-0.224,0.904,3.479,7.812,-102.905
-0.952,-0.092,0.967,-9.644,14.526,-102.417
-0.979,-0.030,1.012,-9.949,16.174,-98.206
-1.014,-0.007,0.981,-6.531,15.564,-89.661
-1.036,-0.064,0.877,4.517,12.695,-76.721
-1.049,-0.168,0.772,14.160,8.789,-61.462
-1.085,-0.340,0.683,16.724,5.188,-48.035
-1.172,-0.457,0.717,15.137,3.967,-31.250
-1.189,-0.472,0.765,3.845,6.165,-11.841
-1.151,-0.433,0.764,-12.756,3.906,4.211
-1.074,-0.312,0.778,-24.109,4.578,9.949
-0.997,-0.237,0.782,-32.715,8.240,10.376
-0.941,-0.192,0.792,-32.776,7.324,7.507
-0.902,-0.202,0.811,-25.452,1.099,8.850
-0.862,-0.274,0.829,-17.395,-5.981,12.268
-0.820,-0.345,0.861,-15.259,-9.155,16.724
-0.757,-0.348,0.892,-18.555,-9.644,22.583
-0.691,-0.349,0.892,-21.790,-10.864,30.090
-0.608,-0.314,0.914,-19.958,-12.390,35.583
-0.522,-0.256,0.949,-20.752,-7.935,42.603
-0.466,-0.218,0.993,-14.526,-8.423,52.368
-0.419,-0.177,1.049,-9.949,-10.010,56.641
-0.384,-0.135,1.073,-10.010,-9.338,57.373
-0.343,-0.111,1.069,-4.700,-8.362,59.265
-0.326,-0.100,1.060,2.808,-8.362,59.998
-0.312,-0.108,1.043,5.676,-8.057,59.265
-0.304,-0.115,1.017,8.118,-5.432,59.021
-0.277,-0.117,0.954,9.155,-3.479,57.983
-0.257,-0.111,0.881,7.324,-3.540,55.664
-0.238,-0.109,0.816,4.944,-5.310,57.556
-0.224,-0.121,0.758,7.690,-9.705,61.401
-0.220,-0.146,0.757,7.690,-11.658,63.354
-0.222,-0.162,0.787,10.559,-16.846,65.552
-0.230,-0.190,0.833,10.559,-19.653,67.139
-0.215,-0.224,0.845,8.911,-20.447,68.726
-0.190,-0.248,0.873,10.010,-20.569,70.374
-0.181,-0.247,0.942,13.855,-21.973,72.205
-0.164,-0.249,0.968,13.550,-20.020,73.425
-0.135,-0.254,0.950,6.653,-16.968,70.129
-0.110,-0.236,0.909,-0.183,-15.076,65.979
-0.091,-0.233,0.883,-2.014,-14.832,64.636
-0.092,-0.226,0.880,-3.174,-14.282,61.218
-0.059,-0.211,0.880,-7.568,-10.803,58.044
-0.052,-0.214,0.874,-12.634,-9.644,58.105
-0.022,-0.183,0.877,-14.709,-9.766,57.983
0.006,-0.158,0.898,-11.658,-10.803,59.998
0.022,-0.149,0.914,-7.568,-12.329,60.181
0.029,-0.158,0.928,-4.517,-11.963,59.143
0.027,-0.180,0.953,-2.441,-11.597,57.739
0.034,-0.198,0.947,-0.793,-11.108,56.519
0.054,-0.197,0.935,2.502,-12.268,55.115
0.066,-0.193,0.935,4.150,-14.343,52.490
0.071,-0.203,0.928,5.188,-17.456,49.988
0.082,-0.204,0.921,7.141,-19.714,47.852
0.091,-0.186,0.923,8.118,-21.973,44.739
0.081,-0.161,0.932,8.850,-23.376,41.626
0.073,-0.130,0.930,9.277,-23.132,38.513
0.065,-0.125,0.906,11.414,-22.278,36.560
0.051,-0.127,0.896,14.404,-20.447,34.851
0.040,-0.168,0.889,15.869,-18.066,36.072
0.037,-0.186,0.864,11.841,-15.076,37.048
0.038,-0.197,0.841,5.859,-11.719,40.771
0.045,-0.185,0.833,-2.563,-9.094,42.786
0.064,-0.154,0.830,-7.568,-10.803,44.312
0.069,-0.135,0.864,-8.423,-12.024,44.739
0.082,-0.123,0.909,-4.639,-13.000,45.166
0.101,-0.119,0.921,-0.549,-13.550,43.884
0.115,-0.123,0.923,1.831,-13.245,40.405
0.113,-0.138,0.920,5.554,-14.160,36.377
0.094,-0.142,0.937,11.536,-15.076,33.569
0.092,-0.141,0.935,14.771,-14.404,32.654
0.090,-0.145,0.911,15.503,-12.695,30.823
0.075,-0.146,0.905,17.151,-9.949,29.846
0.054,-0.180,0.903,16.235,-7.935,32.532
0.031,-0.199,0.923,9.155,-5.127,30.640
0.036,-0.176,0.930,2.869,-0.977,30.396
0.051,-0.153,0.910,-3.052,5.737,29.236
0.070,-0.114,0.881,-4.761,3.296,27.466
0.079,-0.093,0.875,-5.127,-0.549,26.245
0.081,-0.083,0.877,-5.737,-1.831,23.254
0.074,-0.084,0.881,-4.761,-4.211,20.325
0.070,-0.091,0.890,-3.479,-5.859,17.700
0.059,-0.096,0.916,-0.610,-8.118,16.174
0.054,-0.102,0.923,-1.038,-7.690,14.343
0.051,-0.103,0.931,-1.038,-6.897,13.672
0.049,-0.117,0.933,-0.183,-6.287,13.672
0.046,-0.122,0.926,0.305,-6.470,14.282
0.040,-0.134,0.914,0.122,-4.700,15.625
0.031,-0.138,0.899,-1.709,-3.784,15.869
0.016,-0.134,0.887,-6.042,-2.014,16.541
0.012,-0.118,0.881,-7.690,-1.709,18.433
0.009,-0.095,0.875,-8.728,-2.014,19.287
0.016,-0.080,0.857,-10.803,-3.174,18.433
0.021,-0.074,0.839,-10.437,-5.493,17.395
0.018,-0.068,0.848,-8.423,-7.507,16.968

1.879,-0.625,1.098,58.472,-24.902,-38.025
2.058,-0.711,1.009,52.368,-16.541,-58.655
2.019,-0.740,0.873,34.241,-2.747,-73.608
1.890,-0.646,0.836,18.982,16.663,-83.740
1.730,-0.483,0.838,-0.061,37.170,-86.670
1.569,-0.386,0.819,-16.724,51.025,-90.881
1.371,-0.333,0.846,-22.888,55.054,-104.858
1.138,-0.422,0.888,-24.109,45.044,-118.530
0.874,-0.656,0.869,-13.489,29.114,-133.606
0.613,-0.912,0.868,14.587,5.798,-146.362
0.374,-0.963,0.898,33.691,-14.160,-157.654
0.154,-0.891,0.912,28.625,-20.447,-161.011
-0.038,-0.615,0.802,7.507,-31.128,-177.673
-0.269,-0.210,0.648,-26.611,-32.043,-207.642
-0.542,0.099,0.657,-57.312,-25.818,-226.807
-0.898,0.257,0.776,-74.219,-19.287,-240.479
-1.181,0.242,0.817,-59.998,-10.559,-240.967
-1.374,0.011,0.756,-11.230,-8.972,-218.140
-1.489,-0.340,0.662,32.349,-6.470,-190.674
-1.570,-0.586,0.621,55.054,-7.263,-168.335
-1.592,-0.687,0.644,60.974,-7.996,-155.457
-1.556,-0.791,0.686,55.847,-5.920,-133.667
-1.413,-0.781,0.743,39.917,-4.578,-116.943
-1.242,-0.639,0.852,15.991,-1.526,-108.704
-1.050,-0.452,0.961,-6.409,4.578,-102.234
-0.854,-0.269,1.030,-22.400,13.672,-95.459
-0.693,-0.125,1.060,-29.358,17.151,-90.515
-0.564,-0.043,1.069,-30.334,23.254,-89.661
-0.447,-0.004,1.008,-27.405,26.245,-88.013
-0.380,-0.051,0.954,-15.259,25.757,-80.933
-0.362,-0.126,0.900,4.272,16.479,-71.167
-0.393,-0.212,0.914,15.991,11.719,-58.472
-0.424,-0.291,0.908,12.573,9.705,-46.143
-0.465,-0.357,0.882,5.249,8.850,-31.799
-0.472,-0.354,0.863,-3.479,11.292,-18.311
-0.497,-0.368,0.888,-8.850,15.930,-3.906
-0.500,-0.357,0.905,-18.799,18.494,7.507
-0.491,-0.338,0.904,-22.644,17.944,15.686
-0.479,-0.299,0.884,-23.132,14.221,19.958
-0.497,-0.292,0.886,-13.367,5.676,27.649
-0.492,-0.310,0.886,-6.348,2.075,36.072
-0.497,-0.284,0.921,2.014,-4.272,45.776
-0.459,-0.219,0.923,3.540,-5.127,49.438
-0.425,-0.136,0.931,-3.845,-1.099,46.143
-0.404,-0.069,0.918,-13.489,0.793,39.734
-0.393,-0.035,0.904,-14.099,0.305,34.302
-0.376,0.006,0.867,-7.446,-2.747,32.776
-0.354,-0.009,0.829,2.197,-3.601,36.133
-0.333,-0.042,0.793,8.911,-3.845,39.063
-0.314,-0.055,0.766,8.362,-6.226,38.025
-0.305,-0.105,0.766,8.667,-8.545,40.222
-0.298,-0.148,0.790,7.385,-9.827,42.542
-0.287,-0.187,0.833,4.822,-9.949,46.021
-0.266,-0.197,0.880,2.197,-9.521,49.988
-0.246,-0.200,0.917,-3.479,-8.179,52.368
-0.221,-0.208,0.944,-8.301,-7.629,54.077
-0.213,-0.211,1.004,-7.751,-7.446,55.237
-0.216,-0.205,1.064,-3.601,-6.897,58.044
-0.202,-0.203,1.061,1.709,-5.127,60.242
-0.192,-0.204,1.039,5.737,-3.601,59.692
-0.187,-0.196,1.005,7.690,-3.052,57.983
-0.182,-0.208,0.954,11.902,-3.052,57.800
-0.187,-0.228,0.923,14.832,-3.113,58.899
-0.194,-0.242,0.901,13.367,-0.916,60.364
-0.186,-0.238,0.872,7.629,-0.671,59.998
-0.163,-0.215,0.828,2.136,-1.709,60.791
-0.140,-0.189,0.808,0.793,-4.517,64.575
-0.124,-0.179,0.832,2.441,-7.996,67.383
-0.124,-0.171,0.894,2.197,-10.376,66.528
-0.124,-0.170,0.942,3.845,-10.742,67.017
-0.117,-0.173,0.956,5.005,-9.094,67.505
-0.101,-0.181,0.931,4.211,-6.714,66.833
-0.084,-0.186,0.903,2.441,-5.676,65.674
-0.083,-0.190,0.891,-0.183,-5.615,64.697
-0.078,-0.194,0.880,-4.761,-4.395,65.063
-0.071,-0.185,0.871,-8.728,-3.357,65.979
-0.049,-0.176,0.858,-13.794,-1.526,66.772
-0.021,-0.159,0.847,-18.433,-2.075,64.575
0.009,-0.138,0.856,-19.775,-3.540,62.012
0.017,-0.134,0.883,-17.334,-7.935,59.082
0.029,-0.109,0.910,-10.376,-9.888,54.932
0.030,-0.140,0.923,-4.517,-11.108,54.871
0.005,-0.160,0.951,0.122,-11.230,52.795
0.009,-0.192,0.942,1.648,-10.010,53.833
0.027,-0.189,0.917,1.282,-8.240,54.932
0.052,-0.195,0.895,2.319,-10.010,56.396
0.055,-0.196,0.925,6.592,-13.428,56.396
0.049,-0.209,0.963,8.606,-14.221,56.702
0.051,-0.219,0.973,7.202,-13.794,55.542
0.058,-0.209,0.957,6.958,-12.939,54.199
0.061,-0.188,0.929,6.836,-11.475,52.917
0.062,-0.197,0.884,7.751,-11.353,51.025
0.048,-0.190,0.868,7.629,-12.817,46.936
0.040,-0.201,0.859,6.958,-13.672,45.471
0.029,-0.216,0.871,4.761,-14.587,44.189
0.015,-0.232,0.905,3.174,-13.855,44.739
0.021,-0.232,0.920,-0.366,-10.620,45.044
0.045,-0.210,0.914,-4.761,-7.751,44.922
0.067,-0.188,0.896,-6.165,-7.507,43.884
0.077,-0.170,0.889,-5.432,-8.057,41.870
0.068,-0.152,0.888,-2.808,-10.254,39.246
0.065,-0.162,0.901,-0.305,-10.620,39.246
0.061,-0.167,0.917,-0.122,-12.085,37.720
0.052,-0.171,0.943,0.183,-12.817,37.231
0.041,-0.181,0.939,0.732,-10.742,35.583
0.048,-0.194,0.936,-0.793,-7.751,35.583
0.048,-0.158,0.927,-0.427,-8.667,33.386
0.053,-0.141,0.927,1.465,-7.141,31.189
0.059,-0.136,0.918,3.174,-7.751,29.419
0.075,-0.120,0.886,4.822,-10.498,27.405
0.065,-0.116,0.905,8.545,-9.277,25.146
0.062,-0.125,0.913,11.169,-7.935,27.222
0.056,-0.131,0.911,9.338,-6.714,27.771
0.050,-0.141,0.907,5.188,-2.808,27.710
0.047,-0.139,0.893,0.671,-1.648,26.489
0.049,-0.140,0.874,-2.686,-1.099,26.428
0.041,-0.140,0.874,-4.272,-2.319,26.489
0.040,-0.133,0.873,-6.165,-3.601,25.818
0.036,-0.128,0.896,-8.179,-4.272,24.170

1.812,-0.742,1.182,46.570,-5.249,21.057
2.009,-0.839,1.269,25.208,0.549,9.033
2.101,-0.897,1.268,-1.831,14.648,9.338
2.152,-0.760,1.203,-18.127,32.654,0.732
2.077,-0.537,1.101,-20.813,37.720,-22.400
1.984,-0.328,0.994,-12.268,33.752,-50.110
1.805,-0.287,0.869,-1.831,12.939,-83.496
1.468,-0.350,0.875,4.272,-5.737,-117.432
0.958,-0.492,1.017,-4.456,-11.475,-142.456
0.589,-0.576,1.160,-18.616,3.662,-165.710
0.251,-0.648,1.192,-36.865,17.639,-177.429
-0.035,-0.624,1.208,-40.405,24.414,-187.378
-0.201,-0.526,1.221,-36.743,35.278,-203.613
-0.291,-0.465,1.090,-18.005,32.715,-221.191
-0.415,-0.413,0.829,14.038,20.508,-240.540
-0.598,-0.453,0.472,56.091,1.038,-231.384
-0.907,-0.695,0.248,95.276,-19.531,-207.397
-1.255,-0.879,0.278,107.666,-33.630,-184.204
-1.527,-1.031,0.380,84.229,-35.034,-158.997
-1.606,-0.934,0.454,34.363,-21.667,-139.221
-1.515,-0.647,0.496,-15.320,-8.789,-130.981
-1.355,-0.348,0.548,-34.302,-2.991,-124.207
-1.228,-0.156,0.723,-24.170,2.991,-119.385
-1.084,-0.082,0.879,2.258,5.249,-113.037
-1.020,-0.074,0.938,12.268,6.348,-112.122
-0.922,-0.108,0.984,20.874,7.385,-114.868
-0.819,-0.189,0.987,27.161,6.836,-112.671
-0.730,-0.217,1.009,28.259,8.484,-108.521
-0.691,-0.201,1.043,15.686,17.517,-105.896
-0.607,-0.182,1.055,11.047,25.452,-91.431
-0.562,-0.125,1.087,1.282,30.579,-76.172
-0.492,-0.017,1.021,-14.893,39.795,-66.101
-0.405,0.024,0.872,-18.799,41.626,-54.749
-0.366,0.029,0.792,-10.254,35.278,-44.617
-0.365,-0.006,0.789,-5.249,29.480,-38.757
-0.392,-0.044,0.779,-5.188,20.996,-35.583
-0.425,-0.075,0.764,-11.108,18.372,-32.532
-0.450,-0.112,0.737,-15.442,18.127,-26.672
-0.500,-0.150,0.757,-17.212,17.456,-21.790
-0.527,-0.160,0.770,-17.639,11.963,-14.832
-0.534,-0.163,0.791,-20.203,8.545,-7.263
-0.521,-0.139,0.827,-25.513,7.202,-2.502
-0.513,-0.124,0.870,-26.184,5.432,2.808
-0.497,-0.117,0.896,-21.301,2.014,8.179
-0.492,-0.116,0.919,-13.306,0.183,13.489
-0.477,-0.121,0.926,-6.409,0.610,17.517
-0.469,-0.137,0.934,-1.831,-1.038,18.921
-0.482,-0.163,0.942,1.526,-0.549,19.897
-0.479,-0.198,0.925,3.784,1.953,21.667
-0.472,-0.221,0.886,4.272,4.333,25.513
-0.456,-0.224,0.864,2.625,5.676,28.687
-0.436,-0.224,0.860,0.244,5.798,31.738
-0.412,-0.213,0.858,-2.991,5.188,34.119
-0.387,-0.205,0.859,-5.676,4.761,36.682
-0.374,-0.194,0.889,-4.272,3.235,39.795
-0.365,-0.180,0.929,-3.479,3.357,43.457
-0.354,-0.169,0.969,-4.395,5.127,45.044
-0.337,-0.142,0.996,-5.066,5.737,46.631
-0.310,-0.119,0.984,-3.601,6.226,48.035
-0.285,-0.117,0.975,1.892,6.042,49.438
-0.279,-0.136,0.975,6.104,5.737,50.110
-0.265,-0.166,0.953,6.714,5.066,50.293
-0.251,-0.196,0.939,5.432,4.333,49.988
-0.242,-0.211,0.923,5.249,2.258,51.514
-0.229,-0.218,0.895,5.737,-0.183,54.260
-0.212,-0.231,0.849,4.333,-2.502,57.373
-0.202,-0.213,0.837,3.540,-5.737,59.143
-0.192,-0.199,0.841,3.418,-7.996,62.012
-0.192,-0.191,0.850,2.319,-9.766,61.951
-0.170,-0.141,0.853,5.981,-8.362,55.359
-0.174,-0.136,0.861,15.747,-9.094,59.448
-0.152,-0.150,0.898,23.132,-10.742,59.814
-0.154,-0.163,0.918,19.531,-10.498,57.251
-0.155,-0.185,0.925,16.357,-9.583,55.237
-0.151,-0.194,0.912,16.479,-10.010,54.932
-0.144,-0.186,0.889,20.447,-10.437,56.458
-0.145,-0.176,0.885,26.672,-7.690,62.256
-0.127,-0.180,0.916,25.574,-5.249,67.871
-0.124,-0.162,0.937,16.907,-4.578,69.031
-0.124,-0.152,0.920,7.690,-4.272,67.505
-0.098,-0.129,0.914,-1.709,-5.798,64.514
-0.092,-0.126,0.892,-7.263,-8.423,60.303
-0.092,-0.123,0.875,-12.207,-6.287,55.115
-0.083,-0.117,0.854,-7.080,-10.742,52.246
-0.087,-0.104,0.867,0.916,-12.878,50.964
-0.083,-0.094,0.856,-2.014,-10.559,49.316
-0.062,-0.081,0.836,-4.456,-9.460,47.729
-0.063,-0.066,0.868,-4.944,-10.742,47.424
-0.048,-0.064,0.852,-0.854,-19.348,49.561
-0.042,-0.076,0.848,1.343,-23.926,52.246
-0.015,-0.093,0.840,-3.296,-23.132,52.246
-0.030,-0.121,0.848,-5.188,-26.062,48.706
-0.036,-0.162,0.866,-7.446,-26.001,46.875
-0.051,-0.187,0.902,-7.996,-28.259,48.767
-0.055,-0.203,0.916,-10.254,-25.940,48.706
-0.053,-0.187,0.944,-14.648,-23.254,45.776
-0.039,-0.146,0.951,-15.991,-21.301,44.556
-0.016,-0.115,0.939,-13.855,-19.836,45.471
0.004,-0.085,0.916,-11.597,-19.653,44.495
0.020,-0.073,0.895,-6.470,-22.461,43.518
0.011,-0.076,0.894,2.014,-28.137,41.565
-0.001,-0.088,0.906,8.545,-32.104,38.879
-0.017,-0.099,0.919,10.071,-32.410,34.851
-0.029,-0.100,0.935,10.986,-32.288,31.433
-0.033,-0.094,0.951,11.902,-31.860,29.236
-0.007,-0.087,0.926,11.536,-30.579,30.579
-0.011,-0.132,0.918,12.756,-30.518,32.532
-0.003,-0.114,0.914,9.521,-30.579,28.625
0.020,-0.109,0.907,4.700,-27.161,27.649
0.038,-0.088,0.905,3.967,-26.978,27.893
0.038,-0.066,0.911,5.005,-27.466,31.372
0.039,-0.058,0.910,7.690,-26.306,34.851
0.041,-0.058,0.906,9.521,-23.010,36.987
0.042,-0.062,0.903,11.963,-22.095,38.330
0.044,-0.073,0.908,12.939,-20.630,38.147
0.037,-0.085,0.912,11.536,-17.822,36.377
0.021,-0.123,0.934,10.803,-12.939,36.804
0.006,-0.172,0.949,6.470,-7.202,37.781
-0.000,-0.214,0.930,-4.089,0.305,36.926

1.914,-0.633,1.027,6.409,-23.743,-35.339
2.008,-0.642,1.121,-2.197,-14.160,-45.105
1.985,-0.560,1.278,-19.836,0.549,-60.486
1.903,-0.511,1.331,-27.161,25.513,-67.627
1.774,-0.478,1.300,-24.475,50.171,-79.102
1.622,-0.398,1.177,-21.790,63.965,-96.375
1.403,-0.389,0.982,-19.104,65.552,-112.000
1.123,-0.308,0.834,-2.136,56.335,-133.484
0.817,-0.236,0.747,11.169,27.527,-154.419
0.417,-0.271,0.666,27.771,-17.212,-165.344
0.093,-0.292,0.569,44.556,-60.669,-174.500
-0.241,-0.360,0.545,27.710,-62.561,-179.565
-0.493,-0.437,0.508,3.845,-56.885,-173.462
-0.734,-0.567,0.520,-13.855,-63.721,-158.569
-0.874,-0.561,0.629,-8.240,-60.059,-146.912
-1.017,-0.497,0.646,3.479,-54.138,-132.629
-1.020,-0.415,0.690,-0.427,-29.846,-118.042
-1.025,-0.294,0.797,-6.042,-7.751,-118.958
-1.024,-0.283,0.838,-6.042,-6.165,-119.019
-1.015,-0.308,0.928,1.831,-20.203,-119.080
-0.998,-0.323,0.986,15.564,-35.278,-114.807
-0.952,-0.339,0.966,27.039,-45.044,-108.643
-0.942,-0.376,0.902,36.194,-48.523,-106.750
-0.928,-0.374,0.754,38.208,-41.626,-103.149
-0.930,-0.359,0.729,36.499,-21.484,-94.299
-0.951,-0.327,0.803,29.358,7.507,-80.872
-0.932,-0.309,0.857,21.729,33.691,-63.171
-0.897,-0.236,0.869,4.333,52.185,-48.889
-0.837,-0.172,0.855,-11.047,65.247,-37.292
-0.756,-0.096,0.854,-13.916,69.824,-26.978
-0.654,-0.023,0.873,-12.512,65.796,-19.409
-0.594,-0.002,0.934,-11.353,61.523,-14.343
-0.548,-0.016,0.989,-10.498,51.086,-9.399
-0.493,-0.064,1.024,-12.817,34.485,-3.540
-0.442,-0.081,1.058,-18.921,30.090,-0.488
-0.380,-0.072,1.056,-28.687,20.386,3.357
-0.335,-0.079,1.076,-32.654,15.930,7.019
-0.298,-0.051,1.091,-37.354,9.583,10.315
-0.272,-0.057,1.083,-41.321,1.526,13.306
-0.262,-0.064,1.081,-37.964,-1.770,16.296
-0.242,-0.071,1.053,-36.865,0.366,19.104
-0.233,-0.094,1.017,-34.241,-3.906,23.376
-0.223,-0.117,0.982,-32.776,-6.897,26.062
-0.208,-0.114,0.979,-33.264,-3.540,28.320
-0.211,-0.126,0.968,-29.541,-2.991,30.884
-0.208,-0.139,0.980,-18.921,-2.319,32.410
-0.205,-0.162,0.971,-10.010,-0.854,33.508
-0.205,-0.189,0.950,-4.395,4.028,34.607
-0.208,-0.210,0.925,-0.488,11.780,35.461
-0.223,-0.206,0.942,-0.427,20.874,34.790
-0.232,-0.218,0.942,0.549,21.118,37.170
-0.240,-0.231,0.952,4.944,23.132,40.833
-0.253,-0.219,0.976,2.502,27.527,42.542
-0.236,-0.183,0.947,-2.625,31.616,44.373
-0.207,-0.148,0.894,-5.798,29.541,43.823
-0.195,-0.126,0.874,-6.348,28.564,41.016
-0.174,-0.136,0.859,-0.244,27.954,39.124
-0.172,-0.176,0.864,7.080,23.315,41.077
-0.169,-0.196,0.888,12.817,22.095,42.175
-0.152,-0.207,0.933,11.475,22.217,41.992
-0.152,-0.225,0.958,10.437,19.226,41.504
-0.160,-0.252,0.961,7.935,14.709,40.894
-0.153,-0.261,0.959,5.615,10.864,41.565
-0.144,-0.243,0.963,4.639,8.240,42.725
-0.124,-0.213,0.958,0.549,4.944,44.128
-0.115,-0.194,0.953,-4.333,1.160,44.617
-0.113,-0.188,0.947,-5.981,-3.418,45.959
-0.111,-0.182,0.925,-4.883,-6.165,47.180
-0.112,-0.166,0.895,-2.136,-8.057,47.791
-0.109,-0.156,0.866,-0.061,-8.911,47.180
-0.120,-0.170,0.841,1.221,-8.484,46.082
-0.132,-0.176,0.812,3.540,-6.775,43.945
-0.123,-0.187,0.790,1.953,-5.798,46.753
-0.114,-0.179,0.779,-3.235,-6.409,47.424
-0.100,-0.169,0.783,-7.324,-7.446,47.058
-0.085,-0.147,0.818,-3.723,-9.216,46.082
-0.077,-0.128,0.879,2.869,-10.315,46.753
-0.073,-0.140,0.905,6.165,-11.230,47.913
-0.073,-0.157,0.906,7.935,-11.658,47.424
-0.064,-0.163,0.875,7.019,-11.230,46.143
-0.051,-0.168,0.823,5.859,-11.597,45.959
-0.048,-0.177,0.806,3.723,-12.451,45.715
-0.047,-0.177,0.811,0.671,-15.076,44.739
-0.041,-0.174,0.823,-2.380,-14.771,45.105
-0.017,-0.151,0.820,-3.784,-15.076,44.983
0.001,-0.152,0.842,-3.540,-16.968,43.274
0.006,-0.111,0.867,-4.761,-18.555,40.039
0.020,-0.125,0.888,-5.981,-17.273,38.940
0.017,-0.144,0.910,-4.517,-17.700,36.133
0.019,-0.142,0.940,-0.427,-16.907,34.607
0.025,-0.158,0.939,3.967,-15.198,34.729
0.042,-0.172,0.932,5.371,-13.794,31.982
0.038,-0.153,0.942,6.775,-13.245,29.419
0.049,-0.187,0.926,10.498,-12.451,30.457
0.047,-0.167,0.935,12.939,-12.085,27.222
0.053,-0.162,0.938,13.855,-10.315,27.527
0.059,-0.156,0.944,14.832,-8.728,27.039
0.061,-0.156,0.933,18.188,-7.202,24.841
0.044,-0.155,0.907,23.437,-6.592,24.902
0.061,-0.148,0.872,25.879,-5.554,25.879
0.057,-0.130,0.834,32.166,-3.479,28.381
0.032,-0.174,0.838,36.072,-2.686,36.499
0.013,-0.085,0.864,28.015,0.610,29.175
0.036,-0.096,0.867,23.560,5.249,30.884
0.028,-0.096,0.897,19.165,9.644,26.978
0.029,-0.093,0.927,10.986,10.986,24.536
0.027,-0.123,0.938,2.563,7.690,20.325
0.044,-0.117,0.930,-8.850,8.667,15.137
0.044,-0.112,0.927,-14.038,7.385,13.550
0.026,-0.111,0.921,-14.465,5.127,14.282
0.047,-0.093,0.902,-15.747,2.991,14.893
0.040,-0.084,0.922,-13.306,1.282,15.259
0.042,-0.083,0.929,-11.963,-0.793,16.357
0.043,-0.128,0.929,-13.733,-2.563,15.869
0.039,-0.138,0.920,-16.663,-3.540,10.620
0.049,-0.137,0.916,-13.611,-4.028,10.376
0.063,-0.164,0.889,-9.460,-1.282,10.254
0.074,-0.144,0.880,-1.343,7.690,3.418
0.061,-0.108,0.917,6.775,19.043,-1.221

1.756,-0.502,1.322,1.648,2.014,-78.369
1.651,-0.590,1.279,-10.315,20.752,-94.482
1.562,-0.551,1.106,-8.667,35.217,-96.863
1.492,-0.482,0.845,0.427,45.898,-94.055
1.375,-0.385,0.708,12.024,51.086,-97.412
1.178,-0.402,0.712,15.930,52.246,-101.868
0.851,-0.465,0.766,2.625,52.551,-116.150
0.541,-0.513,0.895,-14.648,57.617,-128.723
0.232,-0.483,0.936,-32.715,57.922,-137.878
-0.049,-0.378,0.874,-46.021,54.138,-140.442
-0.300,-0.273,0.754,-40.894,39.856,-144.226
-0.582,-0.266,0.689,-15.320,20.508,-149.170
-0.840,-0.439,0.676,26.794,1.709,-147.888
-1.080,-0.687,0.646,60.425,-10.925,-143.372
-1.208,-0.842,0.611,73.914,-11.780,-137.939
-1.250,-0.737,0.607,58.350,-5.798,-138.977
-1.235,-0.587,0.574,34.180,-0.122,-132.507
-1.178,-0.399,0.632,27.893,4.028,-115.845
-1.104,-0.219,0.700,22.461,7.812,-97.717
-0.987,-0.032,0.716,14.465,12.756,-87.341
-0.919,0.097,0.732,11.047,12.939,-81.665
-0.845,0.124,0.722,15.198,10.559,-77.332
-0.815,0.073,0.733,21.057,6.958,-74.341
-0.818,-0.014,0.764,21.790,6.042,-69.275
-0.813,-0.104,0.807,12.024,9.521,-61.707
-0.818,-0.174,0.874,-5.310,14.526,-55.969
-0.860,-0.228,0.959,-20.813,20.752,-49.622
-0.880,-0.243,0.983,-26.611,25.146,-47.180
-0.840,-0.262,0.987,-33.203,35.522,-37.964
-0.802,-0.270,0.926,-35.156,34.485,-26.001
-0.768,-0.284,0.842,-31.860,28.870,-16.846
-0.743,-0.298,0.809,-24.963,26.123,-6.897
-0.712,-0.297,0.806,-16.907,18.616,1.892
-0.678,-0.282,0.809,-6.958,11.169,9.399
-0.626,-0.271,0.820,2.014,6.165,15.137
-0.585,-0.269,0.817,9.827,0.916,22.461
-0.527,-0.234,0.812,13.855,-2.563,28.259
-0.459,-0.189,0.827,15.442,-4.944,33.997
-0.434,-0.154,0.875,13.977,-8.057,36.438
-0.396,-0.124,0.908,9.827,-6.592,36.316
-0.369,-0.102,0.934,8.179,-5.493,37.292
-0.348,-0.089,0.962,5.066,-2.014,38.452
-0.341,-0.087,0.987,1.282,3.174,39.246
-0.323,-0.079,0.989,-3.174,8.484,39.917
-0.287,-0.067,0.957,-7.629,12.573,39.795
-0.252,-0.062,0.909,-12.024,14.038,37.292
-0.233,-0.066,0.877,-15.747,14.099,34.241
-0.227,-0.104,0.859,-13.062,13.062,35.217
-0.235,-0.146,0.864,-8.118,10.132,35.217
-0.250,-0.177,0.897,-8.728,8.789,37.231
-0.255,-0.199,0.925,-11.292,8.728,38.940
-0.247,-0.194,0.943,-14.771,8.850,39.795
-0.243,-0.180,0.977,-14.526,9.521,40.833
-0.248,-0.154,0.999,-13.062,9.705,39.673
-0.238,-0.138,1.008,-10.925,11.353,39.307
-0.238,-0.118,0.987,-7.080,12.817,37.964
-0.244,-0.128,0.952,-3.845,13.733,36.194
-0.252,-0.132,0.882,-3.906,12.939,33.386
-0.259,-0.146,0.823,-1.770,10.315,33.020
-0.275,-0.177,0.802,1.831,6.287,33.752
-0.285,-0.203,0.808,2.563,2.563,35.828
-0.281,-0.225,0.812,-1.648,-0.305,38.818
-0.275,-0.234,0.810,-7.935,-2.319,41.443
-0.272,-0.224,0.834,-11.414,-4.028,43.335
-0.266,-0.203,0.875,-10.620,-2.991,44.556
-0.246,-0.167,0.890,-10.010,-2.747,46.082
-0.240,-0.159,0.872,-8.545,-5.127,46.326
-0.221,-0.164,0.839,-8.423,-7.874,43.518
-0.234,-0.134,0.844,-7.568,-10.498,39.307
-0.231,-0.143,0.835,-5.188,-13.611,40.649
-0.228,-0.164,0.830,-1.587,-16.785,42.175
-0.227,-0.181,0.839,1.709,-18.982,41.443
-0.215,-0.216,0.844,2.869,-21.118,43.884
-0.208,-0.239,0.840,0.061,-23.010,43.701
-0.205,-0.239,0.840,-5.188,-24.048,42.419
-0.199,-0.225,0.859,-9.338,-24.597,41.809
-0.187,-0.211,0.882,-10.498,-25.085,41.748
-0.191,-0.190,0.889,-12.268,-29.968,36.743
-0.166,-0.186,0.893,-12.451,-26.062,40.161
-0.158,-0.189,0.893,-10.864,-29.480,37.842
-0.139,-0.175,0.884,-10.803,-30.640,36.865
-0.120,-0.166,0.879,-8.850,-31.250,35.461
-0.108,-0.161,0.857,-3.723,-34.119,33.936
-0.110,-0.179,0.836,4.333,-37.842,33.630
-0.134,-0.217,0.870,9.705,-36.682,33.936
-0.149,-0.293,0.877,8.240,-32.288,36.316
-0.143,-0.277,0.878,1.709,-30.029,36.865
-0.123,-0.251,0.844,-4.639,-25.940,40.955
-0.098,-0.206,0.838,-10.315,-18.982,44.250
-0.077,-0.178,0.835,-13.855,-15.808,45.349
-0.070,-0.158,0.853,-13.306,-15.503,44.556
-0.064,-0.152,0.873,-13.428,-15.869,42.542
-0.061,-0.146,0.894,-11.597,-14.465,40.833
-0.065,-0.140,0.917,-7.996,-13.672,39.246
-0.062,-0.143,0.932,-5.127,-13.184,37.415
-0.063,-0.146,0.932,-3.723,-13.794,34.241
-0.055,-0.154,0.918,-2.136,-11.414,33.020
-0.059,-0.170,0.908,-1.465,-11.963,32.349
-0.088,-0.207,0.877,-4.944,-11.658,31.128
-0.045,-0.184,0.873,-4.517,-9.705,26.672
-0.049,-0.205,0.867,-8.545,-6.653,28.931
-0.036,-0.208,0.862,-10.376,-4.211,29.053
-0.030,-0.216,0.889,-8.057,-4.456,27.466
-0.021,-0.205,0.937,-7.690,-3.174,27.588
-0.036,-0.216,0.971,-5.798,0.732,34.058
-0.034,-0.225,0.980,-3.174,5.188,40.466
-0.007,-0.211,0.951,-3.357,7.324,43.274
-0.006,-0.204,0.916,-4.883,6.287,43.762
-0.010,-0.183,0.907,-4.944,5.249,41.748
-0.004,-0.179,0.896,-3.784,3.296,39.856
-0.006,-0.164,0.906,-2.258,2.258,35.950
-0.014,-0.187,0.917,-1.404,2.747,35.217
-0.024,-0.218,0.930,-3.479,2.808,34.180
-0.012,-0.215,0.935,-6.531,3.418,33.813
0.000,-0.196,0.927,-7.935,3.296,33.203
0.015,-0.182,0.911,-8.972,1.892,30.701
0.021,-0.177,0.904,-8.484,1.221,28.259
0.030,-0.184,0.908,-9.033,1.404,26.672
0.039,-0.181,0.907,-10.132,1.526,24.841

1.532,-0.493,1.497,-0.122,-17.212,-8.972
1.596,-0.531,1.619,-0.244,-12.146,-15.015
1.635,-0.558,1.847,3.540,4.028,-31.311
1.611,-0.563,1.887,5.432,21.362,-53.528
1.578,-0.484,1.750,16.968,36.926,-73.792
1.513,-0.379,1.417,33.447,43.274,-90.393
1.442,-0.292,0.961,53.040,32.410,-100.159
1.203,-0.184,0.538,74.829,3.906,-109.375
0.758,-0.111,0.394,90.881,-35.278,-120.544
0.265,-0.075,0.371,71.655,-58.838,-139.282
-0.155,-0.097,0.363,24.414,-51.453,-163.635
-0.454,-0.141,0.368,-20.020,-28.809,-182.922
-0.612,-0.172,0.438,-34.851,-8.911,-189.209
-0.706,-0.178,0.599,-30.273,-5.432,-190.125
-0.801,-0.187,0.786,-23.132,-7.202,-187.195
-0.888,-0.230,0.953,-15.747,-9.583,-181.213
-0.937,-0.292,1.048,-7.141,-14.587,-172.241
-0.957,-0.313,1.054,5.554,-18.799,-159.790
-0.940,-0.308,1.026,21.973,-24.841,-140.076
-0.936,-0.296,0.947,35.217,-33.325,-119.324
-0.939,-0.257,0.892,41.016,-36.499,-100.891
-0.935,-0.210,0.843,37.903,-36.987,-86.975
-0.911,-0.152,0.713,23.926,-41.504,-83.557
-0.901,-0.072,0.624,13.733,-33.752,-78.308
-0.914,-0.096,0.609,-4.211,-28.564,-72.754
-0.951,-0.028,0.705,-20.569,-14.954,-75.684
-0.900,0.081,0.724,-25.879,-1.648,-71.594
-0.812,0.164,0.713,-27.100,10.071,-65.369
-0.748,0.171,0.698,-18.860,14.587,-57.861
-0.735,0.163,0.736,-9.460,11.169,-52.002
-0.757,0.104,0.768,-8.118,6.531,-46.021
-0.764,0.049,0.804,-10.498,6.653,-39.917
-0.777,0.020,0.855,-14.587,8.972,-35.095
-0.771,-0.022,0.887,-20.264,15.259,-28.992
-0.753,-0.048,0.910,-28.564,17.029,-21.729
-0.695,-0.043,0.918,-32.227,18.372,-12.573
-0.615,-0.031,0.896,-30.762,17.029,-2.441
-0.540,-0.028,0.892,-27.527,12.207,5.127
-0.492,-0.001,0.938,-22.095,5.981,8.057
-0.453,0.028,0.972,-17.517,-0.977,12.695
-0.411,0.031,0.964,-11.536,-3.967,19.409
-0.382,0.046,0.959,-4.639,-8.972,24.170
-0.367,0.048,0.972,0.916,-12.756,27.405
-0.364,0.061,0.995,3.967,-13.184,30.518
-0.372,0.075,1.011,6.714,-12.390,34.241
-0.355,0.070,0.983,7.385,-9.705,36.377
-0.330,0.056,0.941,8.301,-8.789,38.757
-0.309,0.040,0.927,10.498,-6.531,41.199
-0.294,0.035,0.920,10.986,-4.517,42.297
-0.283,0.022,0.924,9.521,-2.991,43.152
-0.282,-0.001,0.941,7.996,-3.235,43.945
-0.295,-0.024,0.963,5.798,-2.258,45.410
-0.303,-0.037,0.956,1.770,-0.488,47.424
-0.299,-0.029,0.930,-2.563,1.709,49.988
-0.291,-0.021,0.906,-6.897,2.747,55.908
-0.283,0.015,0.921,-8.545,4.333,64.087
-0.265,0.036,0.918,-6.165,5.432,72.205
-0.259,0.040,0.903,-1.160,4.944,76.294
-0.263,0.033,0.893,3.113,4.639,77.515
-0.254,0.012,0.862,4.456,4.395,78.369
-0.241,-0.027,0.825,6.287,1.831,80.872
-0.247,-0.066,0.855,7.996,-0.427,81.238
-0.249,-0.065,0.925,8.118,-1.160,79.102
-0.227,-0.055,0.972,4.944,-0.183,77.515
-0.205,-0.040,1.001,3.479,2.869,73.792
-0.177,-0.007,1.007,3.357,4.211,68.604
-0.141,0.014,1.009,1.831,1.526,65.186
-0.130,0.021,1.003,4.211,-0.854,65.369
-0.136,-0.011,0.998,7.202,-3.479,66.833
-0.130,-0.011,0.979,6.470,-6.775,64.575
-0.106,-0.006,0.962,3.723,-8.240,61.829
-0.100,0.019,0.973,1.343,-8.240,58.594
-0.096,0.034,0.972,-1.160,-8.118,57.251
-0.083,0.044,0.966,-3.601,-7.080,55.359
-0.064,0.057,0.940,-4.517,-7.874,53.162
-0.044,0.064,0.905,-3.235,-9.033,50.293
-0.030,0.058,0.871,-1.404,-11.841,47.913
-0.021,0.046,0.839,1.282,-14.771,45.837
-0.028,0.028,0.829,4.028,-17.151,45.654
-0.034,-0.009,0.827,5.005,-17.639,47.241
-0.040,-0.032,0.821,3.357,-17.883,48.401
-0.038,-0.035,0.812,1.038,-17.822,50.171
-0.021,-0.014,0.817,-1.648,-17.944,51.575
-0.013,0.027,0.862,-2.319,-16.968,51.147
-0.004,0.051,0.902,-1.404,-14.282,50.537
0.008,0.062,0.912,-1.038,-14.221,48.096
0.013,0.062,0.909,-0.977,-13.489,46.082
0.011,0.050,0.901,-1.343,-11.047,43.762
0.013,0.038,0.883,-0.977,-9.766,41.748
0.020,0.012,0.860,1.404,-10.010,40.771
0.018,-0.017,0.842,2.930,-10.437,39.917
0.013,-0.047,0.833,2.563,-10.681,41.870
0.001,-0.085,0.842,-0.671,-10.681,43.884
-0.006,-0.093,0.864,-5.798,-8.423,45.898
0.004,-0.085,0.870,-10.193,-6.287,46.448
0.024,-0.032,0.894,-8.911,-5.859,46.875
0.050,0.009,0.917,-4.456,-4.517,49.866
0.064,0.026,0.936,-2.014,-2.930,49.316
0.078,0.033,0.937,0.000,-4.089,48.462
0.088,0.013,0.930,0.916,-4.150,46.082
0.094,0.006,0.930,4.578,-5.371,44.373
0.088,0.017,0.940,8.667,-7.996,46.570
0.084,0.011,0.956,9.827,-9.521,52.917
0.082,-0.013,0.974,8.972,-8.301,57.251
0.069,-0.005,1.000,6.348,-5.554,53.162
0.081,0.014,1.000,4.456,-2.319,47.729
0.103,0.025,0.975,5.432,-0.305,46.021
0.118,0.030,0.935,6.165,-2.991,43.091
0.122,0.046,0.909,6.836,-5.554,39.246
0.109,0.046,0.901,6.958,-8.301,37.720
0.100,0.050,0.913,5.737,-10.071,35.706
0.110,0.056,0.908,3.479,-10.498,34.241
0.104,0.057,0.909,1.892,-10.132,34.119
0.091,0.048,0.913,2.197,-11.536,33.569
0.080,0.053,0.931,3.479,-11.108,34.180
0.069,0.059,0.960,1.526,-7.690,34.851
0.064,0.059,0.972,-1.465,-4.028,32.593
0.077,0.059,0.955,-2.930,-4.089,29.541
0.083,0.067,0.950,-1.587,-5.310,27.954

1.917,-0.677,1.004,-12.695,-20.447,-11.353
2.082,-0.705,1.301,-13.245,-30.151,-33.386
1.974,-0.706,1.731,-19.897,-23.682,-61.157
1.769,-0.670,1.974,-35.583,-2.747,-88.806
1.680,-0.527,1.890,-24.170,17.883,-101.501
1.633,-0.292,1.544,0.977,24.841,-108.032
1.548,-0.042,1.021,13.306,18.555,-121.460
1.287,0.132,0.620,12.146,10.986,-140.564
0.836,0.267,0.408,19.836,-1.221,-160.095
0.342,0.347,0.319,35.706,-16.479,-166.809
-0.083,0.267,0.304,43.335,-20.630,-163.818
-0.428,0.052,0.333,31.677,-19.470,-167.969
-0.618,-0.122,0.389,9.277,-15.747,-181.458
-0.729,-0.324,0.467,-0.244,-18.250,-179.687
-0.836,-0.454,0.618,0.427,-24.841,-171.204
-0.967,-0.502,0.824,-0.183,-26.123,-160.889
-1.086,-0.521,1.009,-4.578,-19.531,-149.597
-1.162,-0.491,1.106,-8.667,-12.573,-137.939
-1.202,-0.442,1.131,-5.005,-5.188,-118.713
-1.224,-0.363,1.091,2.380,4.089,-95.764
-1.207,-0.312,1.017,3.052,15.625,-73.730
-1.145,-0.248,0.938,2.136,22.583,-58.960
-1.034,-0.156,0.812,-5.432,25.085,-58.655
-0.937,-0.100,0.687,-18.616,23.621,-65.063
-0.901,-0.077,0.648,-22.095,18.127,-70.313
-0.912,-0.090,0.710,-14.221,13.733,-67.505
-0.908,-0.127,0.778,-5.920,14.343,-61.218
-0.862,-0.157,0.811,-1.892,17.883,-54.626
-0.770,-0.162,0.815,-2.563,19.348,-47.424
-0.709,-0.101,0.887,-6.531,19.348,-44.373
-0.668,-0.077,0.973,-11.963,22.278,-38.940
-0.613,-0.084,1.011,-18.738,28.687,-34.485
-0.584,-0.082,1.015,-21.484,30.518,-32.715
-0.521,-0.083,0.975,-24.902,31.494,-28.137
-0.517,-0.079,1.021,-41.809,40.894,-28.992
-0.475,-0.093,0.993,-35.645,38.635,-22.156
-0.459,-0.061,0.983,-26.123,34.668,-16.907
-0.442,-0.046,0.941,-26.245,34.668,-10.925
-0.409,-0.048,0.850,-27.771,30.396,-8.423
-0.396,-0.051,0.765,-20.264,23.132,-2.747
-0.390,-0.060,0.709,-8.972,16.357,7.812
-0.379,-0.081,0.685,0.427,7.751,18.677
-0.387,-0.083,0.715,1.526,1.404,23.926
-0.383,-0.077,0.761,-4.028,-3.784,25.635
-0.373,-0.044,0.825,-7.629,-7.812,26.794
-0.360,-0.012,0.910,-3.723,-9.766,30.273
-0.350,-0.005,0.961,-0.061,-11.353,30.396
-0.348,0.001,0.999,3.845,-12.329,28.259
-0.358,-0.019,1.027,7.751,-12.390,27.893
-0.371,-0.048,1.042,9.277,-10.803,28.259
-0.390,-0.089,1.050,8.179,-7.812,28.442
-0.399,-0.133,1.033,3.662,-3.662,27.466
-0.396,-0.168,1.005,-1.892,-0.549,26.184
-0.370,-0.187,0.951,-5.432,-1.648,24.780
-0.346,-0.191,0.907,-5.676,-7.080,24.231
-0.333,-0.195,0.889,-2.869,-9.888,25.391
-0.323,-0.174,0.875,-4.089,-15.625,25.574
-0.317,-0.174,0.873,-5.066,-16.541,29.236
-0.302,-0.185,0.875,-5.493,-17.151,32.227
-0.285,-0.174,0.896,-6.470,-19.897,31.006
-0.252,-0.137,0.925,-12.085,-20.264,19.775
-0.247,-0.090,0.962,-13.367,-23.376,19.165
-0.249,-0.071,0.990,-11.414,-22.583,21.790
-0.243,-0.083,0.997,-8.667,-21.729,25.391
-0.235,-0.102,0.982,-7.507,-22.034,27.100
-0.228,-0.109,0.961,-5.127,-22.217,29.175
-0.211,-0.104,0.944,-1.282,-19.775,35.889
-0.200,-0.121,0.912,2.075,-19.592,42.664
-0.185,-0.124,0.887,4.700,-19.653,46.204
-0.184,-0.123,0.875,7.812,-25.879,48.523
-0.180,-0.114,0.859,9.216,-29.419,49.622
-0.161,-0.098,0.837,8.850,-30.701,51.331
-0.126,-0.066,0.794,7.874,-32.776,51.025
-0.111,-0.048,0.799,9.521,-30.945,50.903
-0.125,-0.087,0.806,9.644,-37.048,50.659
-0.120,-0.113,0.803,5.798,-33.325,52.490
-0.111,-0.130,0.805,2.991,-25.635,57.373
-0.097,-0.133,0.804,3.235,-22.766,61.462
-0.087,-0.123,0.827,0.977,-17.456,64.575
-0.057,-0.098,0.826,-1.648,-15.015,65.002
-0.043,-0.085,0.842,-3.357,-10.193,65.796
-0.036,-0.088,0.870,-4.456,-5.310,64.697
-0.018,-0.091,0.875,-3.784,-4.272,63.354
-0.010,-0.100,0.874,-5.249,-2.625,60.364
-0.007,-0.103,0.879,-4.517,-1.831,59.021
0.011,-0.099,0.859,-3.052,-2.930,58.594
0.038,-0.065,0.862,-1.526,-5.310,56.580
0.050,-0.052,0.862,-2.808,-8.484,53.223
0.051,-0.064,0.862,-5.859,-9.033,49.133
0.046,-0.081,0.870,-6.348,-8.423,47.180
0.036,-0.116,0.886,-6.531,-5.737,48.218
0.037,-0.130,0.904,-7.629,-5.981,45.959
0.038,-0.120,0.917,-8.484,-6.531,44.312
0.047,-0.120,0.918,-10.315,-6.287,43.518
0.068,-0.107,0.902,-13.367,-8.057,40.771
0.097,-0.093,0.882,-14.282,-9.399,39.612
0.108,-0.078,0.882,-13.672,-11.292,37.598
0.110,-0.059,0.891,-10.681,-11.108,38.025
0.107,-0.063,0.913,-5.127,-11.597,40.955
0.113,-0.068,0.920,-3.174,-12.573,41.321
0.115,-0.065,0.948,-4.150,-10.498,39.551
0.111,-0.061,0.965,-4.578,-7.812,37.415
0.108,-0.064,0.973,-1.282,-5.066,37.354
0.077,-0.084,0.991,1.526,-0.732,36.499
0.054,-0.092,1.008,1.892,5.127,37.415
0.064,-0.103,0.952,-4.395,8.728,36.072
0.078,-0.084,0.901,-9.705,10.071,32.043
0.072,-0.087,0.892,-10.986,8.484,30.029
0.071,-0.097,0.878,-11.353,6.042,29.236
0.071,-0.123,0.889,-9.766,4.639,31.189
0.066,-0.138,0.906,-8.850,1.038,32.288
0.067,-0.143,0.917,-12.451,1.526,31.677
0.060,-0.137,0.949,-16.907,3.418,32.043
0.055,-0.135,0.988,-21.545,6.287,31.860
0.064,-0.122,0.999,-21.179,8.484,31.250
0.059,-0.127,0.991,-15.869,9.216,32.288
0.051,-0.140,0.976,-11.536,7.629,31.799
0.058,-0.129,0.947,-10.864,7.568,29.358
0.066,-0.127,0.930,-8.484,6.714,27.832

-0.674,-2.021,1.588,20.752,-8.911,-4.700
-0.772,-1.138,1.019,-118.958,-46.082,36.865
-0.706,-0.466,0.278,-125.000,-77.087,-61.890
-0.317,-1.010,-0.780,-107.239,-73.364,-160.095
-0.445,-0.188,0.354,-98.877,-1.038,-148.804
-0.872,1.952,0.850,-77.820,16.174,-10.010
-0.383,-0.661,0.127,110.840,-15.686,40.100
-0.983,0.077,1.312,232.483,-65.552,-140.564
-0.518,-0.043,0.917,185.547,-21.606,-59.998
-0.786,-0.179,0.858,110.718,-32.288,8.179
-0.428,-0.545,0.627,59.814,-22.461,-60.425
-0.432,-0.625,0.524,-1.038,-67.078,25.696
-0.572,-0.456,0.519,1.343,-52.979,73.242
-0.642,-0.472,0.468,17.944,-18.066,39.124
-0.419,-0.365,0.505,28.076,-7.629,-25.024
-0.560,-0.425,0.667,1.038,-23.987,1.099
-0.538,-0.533,0.696,-33.936,-31.311,8.362
-0.637,-0.070,0.856,-34.607,-51.453,11.658
-0.592,-0.303,0.956,-77.698,-34.851,35.522
-0.568,-0.360,0.684,-140.869,-19.592,75.378
-0.523,-0.197,0.652,-144.531,-33.142,87.524
-0.557,-0.424,0.561,-143.188,-52.734,140.320
-0.616,-0.561,0.507,-127.441,-50.110,142.273
-0.732,-0.713,0.439,-66.101,-44.128,89.478
-0.529,-0.527,0.632,7.141,-36.560,-4.761
-0.395,-0.579,0.739,34.485,-42.175,17.029
-0.492,-0.410,0.618,22.278,-51.147,52.063
-0.509,-0.332,0.576,20.203,-59.265,47.302
-0.534,-0.421,0.612,20.020,-71.533,39.246
-0.619,-0.480,0.673,23.682,-74.402,31.311
-0.575,-0.513,0.652,22.644,-62.439,15.991
-0.535,-0.462,0.618,22.156,-50.354,12.268
-0.473,-0.379,0.551,25.146,-39.307,10.071
-0.475,-0.343,0.523,29.724,-32.227,10.437
-0.528,-0.370,0.591,29.297,-25.513,5.493
-0.505,-0.448,0.622,25.269,-18.494,-11.108
-0.491,-0.475,0.667,11.475,-16.479,-20.142
-0.434,-0.433,0.621,5.981,-14.038,-18.127
-0.413,-0.392,0.590,13.000,-21.484,-3.052
-0.476,-0.059,0.621,26.611,-24.048,35.339
-0.432,-0.252,0.666,64.636,-33.508,9.644
-0.431,-0.273,0.715,78.003,-38.025,-7.019
-0.437,-0.289,0.732,78.796,-41.626,-2.869
-0.442,-0.315,0.746,82.214,-47.913,-4.700
-0.433,-0.318,0.744,85.083,-52.917,-5.920
-0.410,-0.286,0.739,88.745,-58.105,-6.104
-0.389,-0.261,0.757,93.384,-62.561,-5.066
-0.375,-0.224,0.797,99.487,-67.749,-7.141
-0.381,-0.205,0.850,107.300,-72.144,-5.249
-0.384,-0.210,0.872,112.427,-72.998,-3.906
-0.385,-0.226,0.845,118.408,-72.205,-2.991
-0.390,-0.249,0.843,125.977,-71.777,-0.183
-0.398,-0.271,0.840,128.174,-72.021,0.061
-0.392,-0.260,0.815,126.709,-72.571,-1.526
-0.372,-0.248,0.798,117.310,-68.481,2.319
-0.352,-0.222,0.809,99.915,-64.880,-2.991
-0.369,-0.196,0.845,83.923,-60.242,-4.272
-0.376,-0.179,0.882,71.472,-55.054,-3.723
-0.365,-0.139,0.889,65.125,-51.697,-2.808
-0.325,-0.088,0.888,62.866,-49.500,-0.549
-0.288,-0.051,0.881,69.092,-52.368,5.371
-0.263,-0.046,0.864,84.778,-59.692,15.381
-0.269,-0.042,0.869,105.103,-66.895,24.048
-0.276,-0.046,0.886,117.859,-69.214,31.738
-0.283,-0.071,0.884,116.821,-66.711,34.241
-0.303,-0.098,0.880,103.149,-59.021,31.311
-0.307,-0.104,0.883,82.275,-50.293,26.123
-0.292,-0.071,0.869,64.270,-43.701,22.644
-0.289,-0.049,0.892,49.622,-37.964,23.315
-0.276,-0.027,0.909,38.574,-33.813,24.231
-0.246,0.011,0.911,32.654,-30.701,24.170
-0.221,0.048,0.935,29.602,-28.625,24.170
-0.196,0.067,0.945,27.832,-28.687,22.827
-0.171,0.082,0.934,30.823,-30.090,24.109
-0.176,0.103,0.944,37.659,-32.043,25.757
-0.183,0.116,0.964,44.312,-31.433,25.940
-0.182,0.115,0.966,46.082,-28.503,22.522
-0.183,0.106,0.950,45.410,-27.222,19.470
-0.179,0.102,0.932,44.312,-28.076,16.541
-0.174,0.110,0.917,42.114,-29.846,14.221
-0.176,0.114,0.918,38.147,-28.809,12.756
-0.175,0.118,0.925,32.288,-26.123,9.827
-0.163,0.132,0.921,29.541,-25.024,6.775
-0.144,0.142,0.907,29.297,-25.879,4.883
-0.128,0.161,0.891,29.419,-27.344,2.380
-0.125,0.170,0.880,30.884,-29.724,1.770
-0.120,0.185,0.872,31.067,-32.532,3.479
-0.120,0.170,0.857,33.325,-40.344,8.484
-0.121,0.165,0.854,41.931,-48.218,15.198
-0.119,0.170,0.871,46.204,-51.880,18.250
-0.103,0.176,0.887,44.922,-49.866,17.639
-0.092,0.177,0.893,37.170,-44.983,11.230
-0.086,0.193,0.899,27.710,-39.917,4.456
-0.088,0.201,0.898,23.865,-34.729,1.404
-0.085,0.204,0.895,21.240,-27.771,-0.061
-0.077,0.201,0.879,16.663,-23.437,-1.465
-0.075,0.208,0.880,11.230,-20.996,-3.235
-0.073,0.213,0.885,3.906,-22.278,-4.456
-0.074,0.206,0.890,-6.348,-24.780,-5.249
-0.085,0.197,0.915,-12.268,-22.888,-6.653
-0.091,0.190,0.936,-14.648,-18.188,-7.019
-0.090,0.185,0.928,-19.165,-13.123,-8.362
-0.082,0.186,0.920,-24.536,-9.521,-9.460
-0.070,0.197,0.923,-25.269,-7.568,-8.057
-0.066,0.200,0.921,-23.132,-7.202,-5.737
-0.064,0.197,0.927,-20.874,-8.789,-2.869
-0.067,0.195,0.911,-20.142,-11.108,0.244
-0.062,0.191,0.930,-16.479,-12.146,5.066
-0.061,0.196,0.943,-10.010,-12.085,7.446
-0.055,0.190,0.934,-7.202,-12.878,8.362
-0.052,0.188,0.924,-7.141,-14.099,8.545
-0.050,0.185,0.923,-6.165,-12.878,9.277
-0.048,0.181,0.925,-6.042,-12.695,9.766
-0.046,0.180,0.911,-5.066,-12.939,10.498
-0.039,0.177,0.899,-3.540,-13.184,12.146
-0.034,0.176,0.892,-2.869,-13.672,13.550
-0.030,0.171,0.896,-3.296,-13.489,14.404
-0.022,0.170,0.895,-4.028,-13.672,13.916
-0.013,0.173,0.893,-5.737,-13.916,12.756

1.818,-0.424,1.440,-18.250,-18.494,0.305
1.843,-0.416,1.618,-19.714,-14.954,-13.184
1.805,-0.381,1.806,-30.823,-6.592,-52.002
1.748,-0.300,1.794,-35.095,3.906,-90.149
1.685,-0.193,1.560,-23.193,12.939,-119.507
1.562,-0.086,1.153,-3.540,9.094,-138.611
1.266,-0.062,0.739,28.503,-12.634,-148.315
0.840,-0.062,0.415,61.035,-44.983,-159.241
0.426,-0.104,0.223,87.708,-77.698,-162.720
0.023,-0.238,0.140,92.468,-98.083,-162.964
-0.274,-0.343,0.121,59.326,-97.778,-164.246
-0.452,-0.416,0.165,6.348,-85.815,-164.673
-0.545,-0.387,0.359,-38.757,-70.251,-165.894
-0.509,-0.187,0.715,-65.674,-57.312,-167.847
-0.495,0.047,1.125,-65.186,-47.913,-158.203
-0.524,0.122,1.386,-63.660,-36.621,-153.625
-0.583,0.011,1.508,-55.298,-25.146,-149.902
-0.668,-0.147,1.553,-38.452,-16.541,-148.743
-0.750,-0.271,1.513,-14.343,-8.789,-141.663
-0.784,-0.330,1.305,6.348,-7.263,-125.366
-0.832,-0.383,1.174,31.250,-18.372,-101.685
-0.889,-0.399,1.143,54.565,-30.090,-80.322
-0.905,-0.365,1.083,55.603,-32.593,-64.392
-0.851,-0.325,0.898,38.757,-28.931,-55.298
-0.789,-0.254,0.697,6.714,-20.569,-53.894
-0.727,-0.208,0.614,-27.527,-11.597,-51.331
-0.670,-0.105,0.710,-36.255,-8.850,-49.133
-0.605,-0.009,0.771,-31.860,-6.836,-43.579
-0.504,0.057,0.772,-27.161,-2.014,-36.926
-0.416,0.129,0.792,-16.785,-2.441,-33.020
-0.347,0.177,0.799,-7.263,-2.930,-29.480
-0.308,0.191,0.819,-1.831,-1.404,-24.719
-0.298,0.195,0.859,0.488,2.869,-20.264
-0.294,0.193,0.899,-0.305,7.324,-17.700
-0.293,0.187,0.928,-3.052,13.428,-15.564
-0.290,0.175,0.949,-10.376,20.752,-13.611
-0.292,0.152,0.964,-19.897,29.053,-10.925
-0.274,0.150,0.962,-27.588,35.217,-8.911
-0.252,0.142,0.939,-32.654,40.710,-6.348
-0.221,0.147,0.896,-38.635,43.335,-7.080
-0.187,0.154,0.832,-46.387,41.443,-8.362
-0.172,0.151,0.768,-46.509,33.386,-5.310
-0.182,0.117,0.769,-31.860,18.494,2.258
-0.219,0.067,0.856,-18.250,2.686,8.667
-0.255,0.025,0.950,-13.306,-1.953,13.977
-0.289,-0.013,1.009,-16.541,-1.953,18.555
-0.307,-0.031,1.027,-17.090,1.892,26.550
-0.312,-0.050,1.039,-10.986,3.906,34.790
-0.307,-0.060,1.041,-4.578,3.052,40.222
-0.304,-0.067,1.066,-0.793,3.479,42.358
-0.306,-0.083,1.084,1.587,4.028,44.250
-0.307,-0.111,1.074,2.441,7.141,44.678
-0.309,-0.128,1.055,7.507,7.874,46.326
-0.311,-0.138,1.033,15.869,7.507,51.086
-0.290,-0.148,0.996,21.179,8.423,54.749
-0.265,-0.139,0.961,20.874,7.812,56.824
-0.250,-0.143,0.930,14.893,6.714,59.082
-0.236,-0.137,0.920,8.606,4.578,60.730
-0.211,-0.118,0.915,4.333,3.479,63.049
-0.168,-0.074,0.936,1.221,2.197,66.040
-0.124,-0.027,0.954,-2.319,2.441,67.810
-0.087,0.006,0.976,-2.747,4.211,68.542
-0.051,0.031,0.995,-0.732,4.700,68.298
-0.015,0.062,1.011,1.587,5.371,66.895
0.009,0.074,1.002,3.052,7.263,65.491
0.024,0.076,0.994,2.686,9.644,62.805
0.027,0.072,0.985,2.380,10.681,60.486
0.025,0.055,0.968,2.991,11.902,58.777
0.025,0.032,0.955,3.235,13.306,56.091
0.014,0.012,0.937,2.502,13.550,53.772
0.010,0.001,0.916,0.671,13.611,53.101
0.018,-0.009,0.888,-1.587,13.611,52.856
0.036,-0.019,0.871,-2.441,10.315,53.345
0.041,-0.022,0.899,-1.160,6.165,54.810
0.040,-0.027,0.939,2.502,2.625,57.007
0.051,-0.033,0.958,5.066,1.953,58.167
0.055,-0.039,0.964,6.836,0.549,58.838
0.070,-0.047,0.940,7.263,0.122,59.570
0.070,-0.054,0.918,7.751,2.441,59.326
0.075,-0.054,0.896,8.301,1.770,58.167
0.091,-0.048,0.867,9.460,0.122,57.495
0.081,-0.042,0.875,9.155,-1.343,54.810
0.066,-0.043,0.877,3.723,-0.366,51.270
0.063,-0.042,0.857,-2.136,-1.465,48.218
0.064,-0.052,0.840,-5.432,-3.052,47.913
0.066,-0.061,0.815,-8.789,-3.479,49.072
0.070,-0.076,0.825,-11.108,-2.441,51.025
0.082,-0.069,0.860,-12.573,-1.587,52.368
0.086,-0.059,0.895,-13.733,-0.854,52.917
0.096,-0.048,0.908,-14.526,1.160,52.490
0.113,-0.042,0.903,-13.428,2.014,51.575
0.123,-0.032,0.908,-11.292,-0.610,49.744
0.126,-0.032,0.915,-11.353,-1.587,47.241
0.119,-0.037,0.937,-11.719,-2.441,44.434
0.121,-0.039,0.941,-13.733,-3.479,41.931
0.140,-0.030,0.948,-14.465,-2.075,40.588
0.154,-0.016,0.960,-12.329,-4.578,38.879
0.156,-0.019,0.965,-9.338,-6.287,37.720
0.147,-0.043,0.969,-6.714,-5.981,36.682
0.137,-0.066,0.973,-5.066,-7.141,35.095
0.127,-0.065,0.970,-4.272,-6.714,33.752
0.123,-0.067,0.946,-3.418,-4.700,33.386
0.130,-0.053,0.911,-2.441,-5.249,32.166
0.137,-0.034,0.894,-2.075,-6.714,31.189
0.140,-0.020,0.887,-1.099,-8.484,30.762
0.133,-0.008,0.889,3.967,-9.888,30.457
0.128,-0.003,0.891,8.789,-11.841,29.114
0.130,0.004,0.893,10.193,-11.902,27.344
0.115,-0.008,0.904,11.353,-12.512,26.489
0.102,-0.027,0.921,9.460,-12.695,25.208
0.099,-0.037,0.937,5.554,-10.620,24.170
0.095,-0.033,0.957,3.296,-8.484,23.376
0.100,-0.029,0.956,-1.099,-6.409,22.461
0.110,-0.014,0.941,-6.348,-3.601,21.790
0.119,0.000,0.933,-6.470,-2.991,21.912
0.118,0.012,0.929,-4.883,-3.540,21.545
0.115,0.018,0.929,-4.211,-3.052,20.020
0.106,0.021,0.935,-4.578,-3.784,17.944
0.101,0.013,0.922,-4.089,-3.601,16.541

1.446,-0.668,1.422,18.494,17.456,36.682
1.856,-0.855,1.526,21.729,15.747,14.099
2.089,-0.983,1.624,7.996,22.278,-22.583
2.224,-1.058,1.578,0.183,36.072,-48.340
2.266,-0.970,1.427,11.780,46.143,-78.247
2.224,-0.823,1.193,34.668,44.312,-101.074
2.077,-0.763,1.021,59.326,35.339,-114.563
1.863,-0.667,0.923,73.547,23.254,-129.578
1.563,-0.660,0.889,74.280,9.644,-139.648
1.150,-0.650,0.790,61.340,-2.747,-153.931
0.644,-0.513,0.669,38.147,-7.141,-174.438
0.126,-0.251,0.552,15.625,-21.912,-194.641
-0.418,-0.038,0.462,-0.671,-31.555,-217.590
-0.939,0.001,0.478,-5.188,-31.250,-235.779
-1.156,-0.048,0.467,-12.390,-28.503,-243.286
-1.499,-0.247,0.388,-25.391,-20.813,-254.333
-1.716,-0.456,0.353,-16.418,-19.165,-257.019
-1.833,-0.596,0.392,5.554,-15.198,-247.620
-1.900,-0.727,0.497,24.048,-5.066,-227.966
-1.835,-0.706,0.515,37.170,0.610,-205.872
-1.663,-0.665,0.504,50.171,6.470,-168.152
-1.481,-0.558,0.590,48.096,9.338,-135.132
-1.302,-0.433,0.754,39.917,15.686,-103.699
-1.112,-0.310,0.832,24.048,22.095,-81.909
-0.933,-0.234,0.836,15.564,27.954,-65.125
-0.781,-0.156,0.865,8.179,33.203,-55.908
-0.653,-0.095,0.876,-0.061,40.588,-47.791
-0.544,-0.038,0.917,-10.803,49.622,-44.067
-0.476,0.010,0.974,-16.907,57.251,-43.640
-0.466,0.050,1.047,-10.925,60.120,-40.894
-0.476,0.055,1.094,-7.202,58.716,-38.269
-0.498,0.046,1.052,-11.658,59.937,-41.321
-0.511,0.047,0.926,-16.052,53.040,-44.189
-0.545,0.011,0.787,-11.719,40.649,-38.818
-0.578,-0.040,0.697,1.038,26.184,-23.926
-0.625,-0.129,0.627,12.146,8.057,-5.432
-0.663,-0.186,0.639,15.442,-4.211,10.681
-0.659,-0.229,0.641,15.930,-18.555,26.062
-0.627,-0.199,0.705,18.677,-28.687,34.790
-0.580,-0.143,0.787,12.146,-29.968,36.865
-0.554,-0.109,0.865,-0.488,-28.931,34.546
-0.534,-0.091,0.935,-6.531,-30.273,30.823
-0.512,-0.076,0.998,-4.395,-25.208,28.931
-0.511,-0.108,1.021,-3.052,-26.245,28.381
-0.522,-0.154,1.030,-2.747,-23.682,28.870
-0.526,-0.195,1.022,-4.028,-16.785,31.250
-0.506,-0.213,1.008,-5.859,-9.399,34.607
-0.478,-0.190,0.999,-6.348,-4.150,37.964
-0.434,-0.164,0.966,-7.019,-1.465,43.518
-0.403,-0.169,0.924,-6.592,0.183,47.852
-0.378,-0.168,0.905,-5.737,1.526,49.011
-0.354,-0.179,0.896,-3.296,2.197,50.537
-0.334,-0.178,0.896,0.671,1.953,51.392
-0.325,-0.189,0.898,2.380,0.916,50.903
-0.315,-0.196,0.895,2.930,-0.793,49.316
-0.304,-0.197,0.895,3.601,-1.160,48.218
-0.289,-0.191,0.905,4.700,-1.648,47.119
-0.280,-0.183,0.902,4.272,-1.587,46.265
-0.272,-0.165,0.899,3.296,-0.732,44.983
-0.245,-0.146,0.864,2.563,-0.916,43.701
-0.222,-0.136,0.830,3.845,-1.648,43.335
-0.220,-0.125,0.834,4.333,-2.991,41.931
-0.220,-0.125,0.856,1.404,-4.517,40.588
-0.216,-0.129,0.876,-3.113,-4.700,41.626
-0.205,-0.135,0.904,-3.357,-5.188,45.105
-0.208,-0.133,0.959,-3.174,-5.188,46.326
-0.207,-0.133,0.997,-3.601,-3.906,47.302
-0.208,-0.120,1.009,-2.563,-2.502,47.974
-0.207,-0.115,0.999,0.732,-1.038,49.316
-0.213,-0.119,0.968,3.418,-0.244,48.889
-0.201,-0.121,0.900,4.639,0.671,47.913
-0.196,-0.132,0.833,4.456,-0.122,48.218
-0.188,-0.136,0.791,3.906,-1.587,49.927
-0.176,-0.136,0.779,3.113,-2.380,53.650
-0.176,-0.146,0.812,-0.122,-3.662,56.824
-0.176,-0.139,0.864,-4.089,-4.883,59.387
-0.171,-0.125,0.906,-7.568,-4.883,61.646
-0.165,-0.108,0.942,-7.874,-4.211,63.782
-0.142,-0.087,0.941,-6.409,-3.357,65.002
-0.120,-0.070,0.937,-2.747,-3.174,64.331
-0.097,-0.065,0.915,1.587,-3.662,62.744
-0.083,-0.071,0.886,5.310,-4.578,61.157
-0.083,-0.079,0.881,7.629,-6.104,58.960
-0.090,-0.093,0.881,6.348,-5.310,57.861
-0.094,-0.100,0.877,4.395,-4.150,57.007
-0.084,-0.102,0.856,0.427,-4.883,56.519
-0.064,-0.103,0.857,-4.333,-3.540,56.824
-0.045,-0.102,0.866,-6.592,-3.174,56.946
-0.033,-0.094,0.891,-7.874,-3.540,56.213
-0.030,-0.093,0.930,-7.080,-4.883,55.542
-0.034,-0.105,0.964,-5.798,-7.446,53.955
-0.032,-0.113,0.982,-6.531,-10.010,51.514
-0.032,-0.125,0.993,-8.423,-8.545,49.927
-0.029,-0.137,0.984,-10.315,-6.836,48.828
-0.024,-0.153,0.965,-10.132,-5.798,47.729
-0.016,-0.142,0.945,-10.620,-6.287,45.898
0.000,-0.126,0.948,-11.230,-7.874,45.593
0.004,-0.116,0.957,-10.681,-10.132,44.312
0.009,-0.109,0.966,-9.949,-12.085,41.809
0.005,-0.094,0.970,-8.423,-13.855,38.147
-0.000,-0.078,0.957,-6.531,-15.869,34.119
0.001,-0.086,0.944,-4.761,-17.395,30.151
-0.009,-0.090,0.942,-1.892,-19.775,26.367
-0.041,-0.135,0.956,-2.808,-19.897,27.588
-0.059,-0.194,0.944,-9.766,-16.174,30.334
-0.089,-0.193,0.961,-27.710,-10.254,26.855
-0.063,-0.171,0.903,-32.776,-9.399,27.832
-0.047,-0.112,0.876,-29.236,-12.634,28.503
-0.031,-0.122,0.858,-16.907,-17.029,41.626
-0.052,-0.152,0.850,-9.094,-23.560,38.330
-0.055,-0.170,0.849,-4.761,-26.794,39.795
-0.049,-0.146,0.841,-3.540,-31.433,34.180
-0.037,-0.141,0.859,-1.099,-32.593,34.546
-0.031,-0.129,0.886,1.953,-33.081,32.288
-0.034,-0.131,0.929,6.714,-32.593,29.907
-0.024,-0.123,0.948,9.705,-31.738,27.588
-0.021,-0.120,0.956,7.019,-27.649,26.917
-0.013,-0.120,0.945,2.319,-23.193,25.452
-0.005,-0.117,0.938,0.366,-19.958,23.804

1.803,-0.662,1.169,28.015,-22.278,-16.235
2.044,-0.703,1.450,10.864,-7.019,-35.583
2.125,-0.730,1.671,-1.465,12.756,-64.392
2.112,-0.695,1.747,6.104,29.724,-94.482
2.030,-0.647,1.605,23.437,44.189,-120.667
1.920,-0.574,1.230,37.537,48.340,-143.921
1.697,-0.495,0.775,47.791,30.212,-163.574
1.237,-0.449,0.424,67.932,-20.813,-175.354
0.664,-0.418,0.267,60.547,-65.002,-192.749
0.110,-0.419,0.229,23.193,-87.769,-201.172
-0.433,-0.501,0.290,-13.428,-95.581,-196.594
-0.853,-0.437,0.488,-51.147,-77.393,-200.562
-1.068,-0.207,0.753,-67.139,-57.495,-211.365
-1.142,-0.012,0.879,-58.716,-38.208,-215.637
-1.135,0.015,0.780,-34.424,-26.123,-206.360
-1.178,-0.125,0.711,-7.507,-20.691,-193.726
-1.212,-0.252,0.719,3.662,-11.292,-184.937
-1.215,-0.348,0.738,2.747,-8.179,-169.800
-1.223,-0.429,0.849,7.263,-3.357,-145.630
-1.194,-0.454,0.942,4.028,4.639,-122.131
-1.116,-0.416,0.991,-3.235,11.719,-101.196
-1.021,-0.360,0.992,-9.277,18.066,-84.473
-0.931,-0.275,0.989,-15.686,23.743,-74.524
-0.890,-0.248,0.981,-18.738,25.940,-70.313
-0.833,-0.226,0.998,-22.461,33.569,-62.805
-0.783,-0.197,1.039,-21.118,39.368,-55.542
-0.741,-0.163,1.091,-19.104,45.898,-48.401
-0.711,-0.123,1.108,-20.752,49.072,-44.128
-0.708,-0.114,1.128,-23.804,50.171,-41.138
-0.688,-0.081,1.098,-24.902,47.791,-38.635
-0.666,-0.069,1.026,-21.851,44.434,-32.227
-0.639,-0.062,0.956,-10.254,34.302,-25.208
-0.607,-0.052,0.912,0.244,28.809,-18.066
-0.606,-0.084,0.890,6.592,20.203,-9.827
-0.598,-0.105,0.884,12.024,15.381,-2.991
-0.592,-0.133,0.889,15.320,11.658,5.310
-0.563,-0.129,0.884,13.306,8.667,11.047
-0.519,-0.096,0.872,7.507,7.324,14.832
-0.477,-0.069,0.846,1.221,7.263,18.311
-0.444,-0.049,0.845,-2.319,4.211,20.874
-0.411,-0.024,0.858,-6.714,2.930,22.400
-0.370,-0.007,0.869,-9.277,1.160,24.292
-0.345,0.009,0.901,-8.301,-1.099,26.367
-0.322,0.002,0.938,-6.226,-2.869,27.954
-0.315,-0.009,1.002,-5.859,-2.502,28.198
-0.290,-0.047,1.024,-6.165,1.160,29.419
-0.276,-0.074,1.027,-4.822,2.808,28.320
-0.271,-0.096,1.026,-3.418,4.272,26.062
-0.271,-0.115,0.996,-4.333,4.211,23.804
-0.276,-0.142,0.966,-3.845,3.296,23.376
-0.280,-0.152,0.948,-3.906,2.747,24.597
-0.280,-0.168,0.922,-4.272,1.099,27.893
-0.284,-0.170,0.899,-1.526,-1.892,32.715
-0.291,-0.174,0.894,2.563,-4.517,38.635
-0.292,-0.178,0.899,4.883,-7.935,43.396
-0.297,-0.167,0.923,6.348,-10.254,46.448
-0.293,-0.150,0.936,4.761,-10.803,49.438
-0.273,-0.131,0.948,3.540,-9.766,51.147
-0.262,-0.113,0.974,5.920,-10.193,52.002
-0.250,-0.097,0.991,7.568,-9.033,52.246
-0.224,-0.085,0.972,7.263,-7.141,51.636
-0.202,-0.082,0.945,8.118,-6.226,50.171
-0.197,-0.060,0.919,7.324,-5.981,48.401
-0.196,-0.063,0.889,6.348,-6.287,49.133
-0.186,-0.049,0.860,5.920,-5.920,49.683
-0.176,-0.032,0.854,4.517,-6.042,51.270
-0.166,-0.012,0.843,0.122,-5.859,51.575
-0.148,0.010,0.832,-4.578,-3.235,52.917
-0.122,0.021,0.815,-2.136,-2.502,57.739
-0.094,0.018,0.808,0.244,-4.272,60.425
-0.081,0.009,0.834,0.183,-6.958,59.509
-0.076,-0.011,0.870,-1.831,-8.118,58.655
-0.075,-0.042,0.890,-3.418,-7.385,58.533
-0.071,-0.064,0.894,-4.028,-6.042,58.472
-0.069,-0.079,0.905,-4.333,-5.859,58.228
-0.062,-0.097,0.909,-4.517,-6.226,58.105
-0.057,-0.110,0.918,-3.174,-6.165,59.204
-0.042,-0.118,0.931,-1.953,-6.531,59.937
-0.031,-0.120,0.942,-1.343,-6.714,60.669
-0.021,-0.125,0.926,-1.892,-6.042,60.669
-0.006,-0.124,0.907,-2.930,-6.042,59.021
0.004,-0.113,0.909,-1.465,-6.226,57.678
0.010,-0.112,0.921,1.038,-6.348,56.702
0.020,-0.121,0.926,2.197,-6.226,55.420
0.021,-0.105,0.947,3.418,-5.920,52.917
0.027,-0.089,0.958,3.357,-4.517,50.598
0.025,-0.081,0.951,4.211,-4.272,48.401
0.028,-0.089,0.920,6.287,-3.723,46.753
0.014,-0.130,0.896,7.446,-4.395,45.898
0.007,-0.164,0.880,3.662,-1.282,45.898
0.011,-0.182,0.866,1.160,0.977,47.485
0.021,-0.166,0.875,-3.357,0.916,44.495
0.035,-0.143,0.898,-6.531,2.869,46.692
0.053,-0.143,0.897,-9.460,3.601,48.035
0.068,-0.134,0.908,-10.559,2.808,48.157
0.065,-0.130,0.937,-10.986,2.258,47.119
0.074,-0.120,0.946,-11.108,1.404,45.166
0.087,-0.098,0.945,-10.559,0.977,42.969
0.085,-0.096,0.951,-8.423,0.854,40.710
0.086,-0.101,0.944,-7.568,1.282,38.391
0.088,-0.105,0.915,-5.676,0.000,37.354
0.093,-0.104,0.888,-2.808,-1.831,36.499
0.094,-0.112,0.893,0.427,-3.296,36.926
0.086,-0.122,0.920,3.174,-4.944,37.903
0.075,-0.132,0.928,2.136,-4.211,37.842
0.073,-0.110,0.927,0.916,-3.235,37.231
0.063,-0.102,0.925,2.258,-2.563,40.161
0.042,-0.099,0.925,0.244,-3.052,35.278
0.047,-0.075,0.918,-3.723,-3.235,30.884
0.056,-0.075,0.903,-5.005,-5.310,28.870
0.056,-0.061,0.911,-5.371,-7.202,25.574
0.055,-0.049,0.917,-5.554,-7.874,23.621
0.051,-0.048,0.914,-5.127,-7.812,22.461
0.046,-0.049,0.903,-4.028,-8.972,21.606
0.037,-0.053,0.911,-3.113,-9.705,19.897
0.016,-0.059,0.925,-3.235,-8.911,18.555
0.015,-0.052,0.926,-3.540,-8.484,17.517
0.007,-0.059,0.921,-3.479,-8.179,17.578
0.005,-0.060,0.918,-5.798,-6.775,16.907

2.094,-0.660,0.751,33.142,-35.767,48.218
2.678,-0.758,0.763,31.799,-58.594,12.024
3.016,-0.667,1.062,3.723,-50.903,-42.969
2.969,-0.703,1.437,-16.968,-33.691,-80.322
2.677,-0.749,1.784,-25.513,9.644,-102.661
2.563,-0.712,1.825,-29.907,33.508,-110.474
2.426,-0.604,1.571,-34.485,65.125,-122.803
2.218,-0.398,1.152,-37.231,65.002,-149.658
1.785,-0.258,0.927,-42.969,42.236,-185.669
1.179,-0.318,0.864,-49.011,7.568,-223.877
0.561,-0.462,0.782,-49.683,-40.344,-261.047
0.045,-0.635,0.685,-28.870,-92.346,-283.081
-0.387,-0.708,0.634,-2.563,-112.366,-292.603
-0.763,-0.774,0.674,29.724,-106.079,-273.743
-0.986,-0.836,0.685,32.776,-81.360,-265.869
-1.202,-0.869,0.764,33.325,-98.572,-264.160
-1.375,-0.902,0.775,38.513,-149.353,-254.028
-1.481,-0.934,0.753,48.645,-173.035,-212.769
-1.545,-0.880,0.919,32.410,-159.363,-161.072
-1.541,-0.811,1.162,3.845,-122.620,-116.272
-1.464,-0.637,1.200,-11.658,-57.129,-87.891
-1.364,-0.564,1.202,8.057,-10.010,-65.613
-1.346,-0.579,1.191,39.001,10.315,-60.547
-1.329,-0.617,1.059,46.631,20.325,-59.998
-1.336,-0.645,0.947,34.912,29.236,-59.570
-1.269,-0.582,0.857,9.094,46.753,-52.246
-1.087,-0.379,0.794,-18.005,66.589,-38.452
-0.864,-0.137,0.800,-41.992,84.229,-24.963
-0.667,0.057,0.839,-58.167,94.238,-20.752
-0.502,0.197,0.870,-59.814,93.811,-21.118
-0.393,0.219,0.923,-54.504,96.069,-19.714
-0.321,0.211,0.979,-54.138,96.069,-19.653
-0.250,0.216,1.027,-49.927,96.497,-9.521
-0.223,0.176,1.034,-33.447,89.844,7.690
-0.211,0.104,1.066,-18.188,78.247,16.602
-0.215,0.031,1.069,-9.094,72.571,20.874
-0.221,-0.020,1.064,-7.935,78.125,19.897
-0.207,-0.054,1.015,-16.418,78.918,17.090
-0.179,-0.055,0.968,-18.188,70.557,13.000
-0.152,-0.054,0.893,-16.479,58.533,8.057
-0.156,-0.090,0.841,-14.343,43.640,0.854
