aX,aY,aZ,gX,gY,gZ
-0.190,0.074,3.318,154.236,-177.246,24.414
-0.236,0.021,3.565,166.870,-181.091,33.020
-0.282,-0.055,3.885,170.288,-157.959,32.532
-0.248,0.034,3.935,146.179,-111.206,3.601
-0.159,0.122,3.582,108.215,-45.532,-27.954
-0.096,0.042,3.090,74.707,21.301,-56.580
-0.052,0.020,2.612,51.819,64.392,-86.670
-0.056,-0.045,2.183,52.979,96.436,-93.140
-0.065,-0.098,1.863,70.435,118.469,-93.628
-0.060,-0.197,1.535,80.872,129.944,-90.820
0.024,-0.244,1.121,68.787,135.498,-88.379
0.027,-0.295,0.549,56.580,121.155,-63.843
-0.069,-0.462,-0.100,62.744,91.919,-39.795
0.001,-0.368,-0.510,104.126,30.701,-32.532
-0.000,-0.261,-0.560,165.710,-80.505,-12.390
0.067,-0.135,-0.463,215.637,-124.329,-29.114
0.079,-0.155,-0.345,220.642,-138.000,-59.875
0.059,-0.221,-0.338,188.110,-125.732,-81.055
-0.059,-0.356,-0.338,146.179,-142.212,-79.956
-0.147,-0.407,-0.326,106.323,-168.152,-72.449
-0.186,-0.419,-0.409,84.106,-162.659,-55.786
-0.227,-0.408,-0.545,78.613,-137.817,-37.781
-0.242,-0.290,-0.729,73.608,-91.370,-27.893
-0.286,-0.185,-0.822,61.646,-30.334,-14.038
-0.298,-0.094,-0.817,56.519,2.197,2.502
-0.267,-0.017,-0.768,53.711,16.052,13.916
-0.221,0.068,-0.594,47.852,23.132,19.226
-0.155,0.124,-0.406,47.913,32.288,26.245
-0.086,0.146,-0.269,46.936,48.035,33.264
-0.013,0.147,-0.171,46.326,58.411,34.180
0.010,0.131,-0.088,40.100,71.167,31.860
0.029,0.150,-0.006,18.860,75.134,32.654
0.086,0.209,0.056,-4.883,57.922,39.612
0.155,0.344,0.121,-35.400,47.546,41.138
0.197,0.409,0.201,-65.552,43.457,40.955
0.191,0.416,0.323,-80.994,33.386,38.269
0.163,0.378,0.435,-87.646,26.855,32.959
0.134,0.315,0.529,-84.351,23.987,30.579
0.097,0.221,0.566,-75.256,19.897,33.691
0.115,0.147,0.486,-78.003,27.893,31.250
0.020,0.185,0.503,-102.539,41.016,17.822
-0.060,0.229,0.588,-115.662,39.612,20.081
-0.071,0.317,0.651,-119.873,33.569,24.414
-0.065,0.399,0.715,-121.948,23.010,25.330
-0.046,0.456,0.793,-117.432,14.832,27.222
-0.022,0.410,0.849,-106.689,11.719,26.672
-0.008,0.366,0.939,-91.125,7.874,21.851
-0.055,0.285,0.999,-76.965,3.296,17.822
-0.083,0.229,1.059,-73.059,6.226,8.423
-0.122,0.221,1.060,-75.195,3.845,-1.343
-0.096,0.271,1.105,-65.674,0.610,-1.526
-0.109,0.225,1.161,-53.772,0.610,3.418
-0.101,0.230,1.259,-46.143,2.502,3.662
-0.074,0.232,1.321,-44.678,1.465,6.409
-0.058,0.196,1.382,-43.030,0.549,11.841
-0.069,0.172,1.423,-38.513,1.282,11.353
-0.091,0.184,1.400,-39.917,2.258,7.446
-0.119,0.159,1.318,-44.434,7.751,7.935
-0.152,0.142,1.239,-48.889,11.597,8.240
-0.184,0.133,1.149,-53.650,11.719,11.108
-0.182,0.136,1.079,-51.147,10.010,12.329
-0.183,0.110,1.077,-41.260,8.423,15.381
-0.169,0.064,1.096,-34.546,8.545,18.372
-0.148,0.032,1.092,-35.645,10.193,20.813
-0.119,0.020,1.058,-38.208,13.000,23.987
-0.102,0.010,1.043,-40.588,16.113,26.794
-0.097,0.019,1.009,-45.776,19.409,28.137
-0.109,0.058,0.952,-53.589,25.574,27.954
-0.114,0.099,0.858,-61.279,25.024,23.376
-0.142,0.087,0.794,-58.350,18.677,17.456
-0.180,0.070,0.827,-44.434,8.972,9.094
-0.179,0.017,0.889,-31.128,1.953,8.423
-0.188,-0.034,0.986,-20.142,0.427,10.193
-0.174,-0.082,1.034,-15.442,3.601,16.724
-0.141,-0.086,1.008,-19.470,8.545,20.752
-0.133,-0.042,0.957,-25.330,15.076,22.278
-0.126,0.038,0.888,-33.142,18.311,20.813
-0.162,0.068,0.827,-35.645,19.531,20.264
-0.182,0.056,0.826,-28.381,20.386,18.494
-0.192,0.031,0.871,-17.822,15.137,16.357
-0.192,0.016,0.931,-8.667,7.935,16.418
-0.176,-0.007,0.999,-4.517,5.310,16.479
-0.176,-0.015,1.045,-5.371,3.784,11.536
-0.177,0.017,1.089,-11.230,-0.793,3.113
-0.180,0.016,1.107,-16.235,-7.080,-1.038
-0.181,0.009,1.088,-19.836,-12.512,-6.042
-0.198,0.020,1.084,-22.766,-13.855,-8.240
-0.168,0.023,1.086,-23.743,-34.485,0.244
-0.124,0.069,1.029,-17.212,-21.545,-2.502
-0.138,0.059,0.991,-13.611,-2.869,-7.446
-0.144,0.060,0.996,-3.418,-2.869,-9.583
-0.134,0.040,0.990,9.338,-3.601,-9.399
-0.140,0.028,1.004,22.644,-0.916,-10.681
-0.153,0.028,0.998,28.625,-2.625,-10.620
-0.168,0.021,0.963,29.480,-2.014,-10.315
-0.185,0.009,0.933,25.635,-1.892,-9.949
-0.198,-0.004,0.901,18.555,-3.113,-7.324
-0.201,-0.018,0.887,10.437,-1.831,-2.319
-0.189,-0.033,0.901,1.953,2.930,3.479
-0.167,-0.025,0.923,-10.254,8.240,7.568
-0.151,-0.010,0.942,-21.179,13.062,9.399
-0.141,0.012,0.960,-27.893,15.869,8.972
-0.138,0.020,0.955,-28.687,16.663,7.385
-0.150,0.027,0.938,-22.461,14.771,3.357
-0.167,0.014,0.929,-13.306,11.047,-0.366
-0.176,-0.011,0.934,-3.113,6.409,-3.601
-0.181,-0.034,0.940,3.723,2.319,-5.615
-0.194,-0.039,0.947,5.981,0.427,-6.104
-0.202,-0.047,0.927,6.958,1.038,-4.883
-0.218,-0.048,0.916,3.845,0.488,-4.272
-0.233,-0.047,0.924,1.343,0.488,-2.319
-0.235,-0.045,0.927,0.793,-0.916,-0.732
-0.232,-0.029,0.927,0.854,0.000,1.587
-0.220,-0.013,0.919,0.854,1.160,3.296
-0.207,-0.011,0.906,-0.671,2.014,3.967
-0.202,-0.010,0.907,-3.174,2.808,3.784
-0.184,-0.014,0.903,-5.188,3.540,1.892
-0.171,-0.020,0.927,-5.005,3.174,-0.427
-0.159,-0.038,0.944,-2.930,3.845,-3.052

-0.545,-0.027,3.114,54.626,-55.786,-36.499
-0.484,-0.274,3.612,96.680,-23.071,-21.667
-0.748,-0.327,4.061,164.612,73.120,5.249
-0.798,-0.593,4.134,164.978,19.165,31.494
-0.741,-0.676,3.775,120.422,-23.621,10.010
-0.598,-0.602,3.100,59.753,-19.836,-4.333
-0.457,-0.560,2.336,-7.324,-23.437,-37.048
-0.410,-0.219,1.608,-46.814,20.203,-61.157
-0.380,0.110,1.084,-37.354,58.960,-32.776
-0.250,0.399,0.710,9.705,84.839,-2.319
-0.111,0.512,0.494,70.618,80.627,8.423
-0.028,0.437,0.284,128.113,57.434,-3.845
0.001,0.170,0.148,173.279,40.039,-18.005
-0.020,-0.206,0.002,195.129,19.165,-19.348
-0.038,-0.488,-0.135,193.054,6.958,-10.803
0.010,-0.655,-0.257,165.466,2.563,-4.700
0.033,-0.622,-0.312,140.320,1.099,-12.024
0.028,-0.461,-0.302,107.971,21.484,-33.386
0.098,-0.353,-0.314,74.890,33.997,-32.349
0.102,-0.257,-0.244,51.636,21.362,-32.471
0.113,-0.242,-0.240,48.767,3.662,-26.794
0.078,-0.276,-0.243,51.453,-0.671,-24.292
0.050,-0.253,-0.251,54.199,-2.197,-19.287
0.059,-0.187,-0.252,54.199,-1.587,-14.771
0.081,-0.074,-0.242,53.406,-3.540,-9.705
0.081,0.037,-0.184,52.856,-2.991,-5.981
0.060,0.143,-0.050,51.819,2.319,-6.226
0.074,0.198,0.009,43.091,12.573,-1.282
0.078,0.213,0.079,35.767,17.639,1.526
0.044,0.225,0.141,36.926,16.785,7.874
0.015,0.207,0.159,35.400,17.456,15.869
-0.001,0.225,0.161,26.855,18.433,21.484
-0.024,0.235,0.208,15.991,18.372,26.672
-0.026,0.299,0.226,-0.610,16.235,32.776
-0.034,0.333,0.239,-23.926,16.846,38.879
-0.078,0.357,0.250,-43.701,15.564,37.842
-0.110,0.345,0.252,-49.194,8.728,36.621
-0.162,0.300,0.269,-45.105,-0.427,30.579
-0.188,0.260,0.295,-38.147,-10.071,24.414
-0.200,0.249,0.335,-31.067,-22.339,19.714
-0.202,0.241,0.423,-25.879,-33.386,15.869
-0.216,0.231,0.530,-18.372,-40.894,8.667
-0.237,0.277,0.588,-24.536,-44.495,-0.916
-0.188,0.304,0.661,-29.297,-42.603,2.991
-0.197,0.284,0.766,-31.189,-40.833,2.563
-0.215,0.255,0.843,-30.945,-40.161,1.404
-0.244,0.183,0.913,-29.602,-36.987,2.075
-0.244,0.133,0.944,-33.325,-31.494,2.380
-0.247,0.117,0.977,-38.757,-27.832,5.127
-0.254,0.100,0.996,-49.744,-22.949,9.521
-0.248,0.089,0.988,-65.247,-18.982,10.315
-0.249,0.107,0.980,-75.684,-16.846,9.216
-0.244,0.117,0.998,-75.806,-16.541,8.850
-0.219,0.144,1.009,-70.129,-18.921,5.981
-0.246,0.145,1.060,-57.251,-21.240,1.587
-0.274,0.110,1.023,-49.072,-19.348,-1.953
-0.290,0.122,0.991,-45.349,-14.160,-10.254
-0.303,0.123,0.999,-38.513,-14.404,-13.062
-0.301,0.111,0.973,-31.311,-19.775,-11.414
-0.315,0.084,1.001,-25.146,-22.339,-1.770
-0.307,0.026,1.051,-24.170,-18.616,8.301
-0.295,-0.021,1.123,-30.273,-13.367,16.113
-0.272,-0.014,1.194,-41.687,-7.080,23.499
-0.228,0.026,1.240,-58.228,2.808,25.818
-0.197,0.053,1.264,-70.129,8.606,26.489
-0.173,0.096,1.254,-75.623,9.644,23.071
-0.187,0.142,1.237,-74.402,11.536,17.090
-0.211,0.141,1.171,-68.420,14.099,9.705
-0.225,0.119,1.091,-57.190,13.000,2.502
-0.240,0.058,1.011,-43.152,10.803,-0.977
-0.243,0.018,0.951,-32.166,7.080,-2.808
-0.249,-0.018,0.909,-23.010,3.357,-1.343
-0.240,-0.037,0.895,-20.630,1.038,0.244
-0.276,-0.031,0.947,-28.015,1.831,1.099
-0.260,-0.024,0.959,-37.476,-1.282,5.188
-0.292,-0.051,1.040,-37.659,-5.432,3.906
-0.304,-0.037,1.112,-39.307,-6.165,0.122
-0.289,-0.041,1.154,-38.330,-4.272,1.099
-0.371,-0.012,1.184,-21.362,59.021,-14.526
-0.360,-0.029,1.236,-19.592,50.903,-7.629
-0.306,0.005,1.206,-25.940,20.996,-7.141
-0.291,0.042,1.107,-21.912,20.874,-9.705
-0.302,0.058,1.046,-14.465,15.930,-14.893
-0.306,0.027,0.995,-5.310,11.902,-17.273
-0.320,-0.005,0.992,6.714,9.521,-16.479
-0.311,-0.058,0.979,14.954,9.216,-12.756
-0.289,-0.098,0.981,14.771,13.733,-8.362
-0.259,-0.109,0.964,6.348,18.433,-5.920
-0.238,-0.120,0.968,-0.671,22.583,-3.906
-0.246,-0.126,0.974,-7.019,11.536,2.686
-0.238,-0.129,0.992,-15.747,0.977,5.859
-0.235,-0.105,0.948,-21.179,6.226,3.845
-0.237,-0.087,0.916,-27.283,1.831,2.991
-0.234,-0.075,0.869,-30.823,-4.272,2.869
-0.231,-0.082,0.828,-25.146,-8.484,3.174
-0.233,-0.090,0.824,-19.043,-17.883,6.104
-0.231,-0.110,0.838,-19.226,-23.865,6.592
-0.210,-0.115,0.835,-19.348,-25.208,8.057
-0.209,-0.090,0.806,-19.226,-27.771,7.874
-0.216,-0.068,0.777,-21.240,-28.198,7.263
-0.235,-0.066,0.790,-20.691,-25.452,6.226
-0.256,-0.067,0.800,-13.062,-26.123,4.028
-0.281,-0.038,0.821,0.854,-32.532,4.028
-0.279,-0.101,0.840,7.202,-36.621,7.935
-0.274,-0.117,0.896,7.141,-32.043,3.235
-0.264,-0.087,0.916,3.601,-29.541,1.648
-0.259,-0.098,0.922,-4.028,-30.640,2.380
-0.264,-0.097,0.928,-5.737,-32.471,1.404
-0.266,-0.079,0.925,-7.019,-28.748,-0.610
-0.263,-0.068,0.922,-9.155,-24.475,-1.953
-0.265,-0.064,0.908,-12.573,-15.381,-2.686
-0.282,-0.071,0.897,-17.029,-4.333,-4.395
-0.292,-0.079,0.908,-25.330,-5.371,-5.920
-0.290,-0.081,0.916,-34.241,-10.620,-5.127
-0.280,-0.085,0.919,-34.973,-9.460,-3.235
-0.265,-0.096,0.912,-23.743,-13.489,-1.648
-0.259,-0.082,0.965,-11.353,-11.841,-0.427
-0.267,-0.089,1.030,-6.287,-5.371,2.380
-0.284,-0.102,1.090,-5.249,3.784,3.967

-0.565,-0.402,2.604,20.691,-92.712,-66.162
-0.524,-0.431,2.830,27.100,-93.140,-75.989
-0.545,-0.658,3.455,58.777,-86.304,-53.101
-0.515,-0.831,3.769,79.346,-50.964,-8.118
-0.313,-0.805,3.836,91.614,-23.682,28.564
-0.250,-0.804,3.634,98.938,7.019,37.476
-0.259,-0.769,3.174,83.191,58.777,29.785
-0.119,-0.683,2.509,42.297,95.398,31.982
-0.091,-0.435,1.849,8.484,109.131,28.625
-0.084,-0.076,1.321,26.550,107.849,22.034
0.004,0.252,0.940,73.303,99.609,19.897
0.086,0.394,0.654,125.183,86.243,13.794
0.149,0.398,0.343,167.114,68.359,-7.263
0.138,0.268,0.014,203.857,45.959,-41.870
0.069,0.026,-0.266,251.404,13.489,-65.369
0.005,-0.251,-0.372,296.021,-13.245,-74.585
-0.047,-0.463,-0.380,304.565,-27.771,-67.749
-0.068,-0.540,-0.524,269.104,-39.734,-51.941
-0.052,-0.500,-0.696,195.251,-41.687,-34.973
-0.042,-0.427,-0.728,107.361,-34.363,-22.034
-0.030,-0.336,-0.650,35.767,-30.701,-18.188
-0.045,-0.216,-0.457,3.601,-28.625,-22.705
-0.006,-0.118,-0.322,6.226,-26.917,-22.034
0.018,-0.034,-0.215,17.883,-28.198,-23.926
0.036,0.015,-0.203,21.240,-26.978,-25.085
0.032,0.025,-0.221,16.907,-17.517,-24.902
0.036,0.051,-0.229,6.592,-7.019,-23.987
0.042,0.092,-0.219,3.357,-7.629,-21.057
0.029,0.117,-0.117,8.423,-11.536,-13.916
0.041,0.152,0.008,12.268,-7.629,-5.554
0.060,0.140,0.116,14.160,-2.808,4.089
0.055,0.137,0.202,11.292,-1.831,9.888
0.021,0.110,0.298,6.653,-1.160,14.771
0.011,0.135,0.332,-3.784,-2.075,21.790
0.009,0.157,0.341,-17.883,-3.662,26.489
-0.011,0.209,0.398,-32.776,-5.371,25.818
-0.030,0.253,0.436,-44.495,-7.812,24.170
-0.080,0.256,0.453,-49.866,-10.803,22.705
-0.106,0.238,0.501,-44.678,-12.878,20.508
-0.125,0.215,0.590,-31.860,-13.550,18.127
-0.155,0.184,0.604,-21.606,-20.142,20.630
-0.125,0.192,0.645,-17.700,-21.423,23.560
0.003,0.221,0.663,-20.264,-26.855,19.470
-0.090,0.290,0.862,-16.113,-26.428,10.803
-0.079,0.293,0.963,-19.226,-17.883,14.893
-0.112,0.246,1.030,-26.917,-14.832,16.785
-0.149,0.170,1.026,-34.912,-9.949,15.564
-0.183,0.141,1.019,-47.058,-1.465,14.893
-0.186,0.142,0.978,-52.551,4.089,17.212
-0.188,0.174,0.962,-49.255,3.662,18.555
-0.174,0.187,0.939,-43.945,1.709,24.170
-0.139,0.228,0.968,-41.870,-2.625,25.879
-0.146,0.211,1.052,-31.860,-10.437,29.114
-0.182,0.153,1.164,-22.034,-9.155,39.368
-0.119,0.108,1.216,-16.174,-3.906,44.800
-0.118,0.087,1.266,-18.616,4.822,50.232
-0.127,0.097,1.275,-25.269,12.756,54.077
-0.137,0.135,1.231,-32.715,15.381,49.927
-0.115,0.174,1.157,-32.349,20.813,45.166
-0.130,0.221,1.071,-31.494,18.677,33.752
-0.161,0.238,0.998,-32.043,17.639,21.851
-0.168,0.211,0.937,-25.513,15.625,20.447
-0.161,0.108,0.916,-15.381,10.620,20.630
-0.166,0.070,0.938,-14.587,1.160,19.714
-0.164,0.019,0.964,-14.221,-4.089,24.780
-0.158,-0.033,0.964,-18.738,-4.456,33.081
-0.183,-0.018,1.044,-26.917,-0.916,26.978
-0.156,-0.026,1.048,-28.259,6.531,30.762
-0.133,0.026,1.021,-38.208,8.179,26.489
-0.104,0.068,0.989,-44.128,11.963,21.729
-0.094,0.100,0.950,-40.527,14.343,14.893
-0.082,0.089,0.897,-32.715,7.812,13.367
-0.113,0.115,0.844,-25.330,-10.498,-5.371
-0.080,0.125,0.847,-19.043,-8.484,7.263
-0.088,0.110,0.892,-13.611,-7.019,13.306
-0.125,0.078,0.917,-10.864,-5.981,16.479
-0.138,0.072,0.916,-13.367,-2.319,18.860
-0.158,0.093,0.923,-19.287,-0.427,18.921
-0.135,0.143,0.925,-23.315,3.601,21.667
-0.156,0.122,0.948,-22.522,5.249,22.339
-0.137,0.155,0.948,-15.991,9.155,23.682
-0.121,0.170,0.911,-9.644,10.864,26.672
-0.121,0.188,0.855,-9.949,12.451,24.231
-0.112,0.210,0.822,-13.977,12.085,17.700
-0.132,0.195,0.843,-11.780,11.597,12.939
-0.158,0.157,0.884,-4.395,11.475,15.930
-0.166,0.138,0.915,-4.028,11.902,24.109
-0.158,0.127,0.922,-4.944,18.433,32.471
-0.144,0.122,0.943,-7.080,23.010,34.912
-0.140,0.134,0.960,-11.292,21.851,34.058
-0.143,0.150,0.974,-16.235,22.522,29.663
-0.154,0.180,0.959,-20.935,23.437,25.452
-0.171,0.176,0.966,-16.052,25.513,21.118
-0.206,0.161,0.960,-9.888,17.029,10.559
-0.238,0.109,0.955,-9.583,14.160,6.287
-0.259,0.076,0.958,-9.583,13.672,4.211
-0.249,0.050,0.939,-10.132,14.893,8.301
-0.232,0.032,1.002,-7.080,16.174,12.695
-0.232,0.011,1.042,-3.296,15.015,14.832
-0.240,0.039,1.080,-1.709,13.733,16.418
-0.237,0.062,1.034,-5.249,15.198,15.564
-0.221,0.102,0.970,-6.226,16.052,12.573
-0.208,0.120,0.938,0.061,9.949,12.939
-0.224,0.123,0.973,12.451,0.793,18.921
-0.233,0.067,0.987,22.034,-3.174,26.184
-0.226,0.016,0.957,20.264,-4.150,24.292
-0.238,-0.020,0.951,14.343,-1.831,20.386
-0.246,-0.042,0.955,6.287,0.488,15.869
-0.248,-0.021,1.002,1.953,1.343,15.381
-0.236,-0.002,1.005,1.404,0.793,20.142
-0.202,0.031,0.977,1.404,2.441,18.921
-0.185,0.072,0.965,1.709,5.676,12.817
-0.182,0.086,0.969,-0.244,2.197,7.996
-0.196,0.062,0.960,-2.808,1.038,8.362
-0.172,0.061,0.921,-1.038,0.488,11.108
-0.228,0.058,0.959,4.028,-3.662,15.198
-0.349,0.105,1.066,4.639,-0.732,14.160
-0.159,0.002,0.907,-9.583,21.057,-23.743
-0.167,0.020,0.921,-5.493,29.724,6.226

-0.447,-0.051,3.052,26.978,-88.257,-47.913
-0.512,-0.130,3.226,19.958,-79.102,-50.110
-0.557,-0.246,3.375,17.761,-62.073,-44.128
-0.533,-0.311,3.320,28.687,-41.199,-32.898
-0.505,-0.369,3.168,48.035,-13.855,-21.484
-0.452,-0.396,2.929,66.650,16.541,-11.169
-0.413,-0.430,2.598,76.355,42.053,-1.038
-0.362,-0.385,2.218,81.177,61.035,-0.427
-0.275,-0.334,1.817,88.684,74.524,3.967
-0.212,-0.212,1.422,86.853,83.008,-1.770
-0.099,-0.018,0.937,94.788,88.440,-4.089
0.098,0.267,0.462,124.817,77.148,-3.906
0.027,0.113,0.166,185.120,48.462,8.972
0.050,-0.079,-0.041,229.370,18.738,-3.174
0.004,-0.278,-0.153,239.441,-1.770,-10.437
-0.021,-0.442,-0.279,208.130,-10.193,-11.108
0.024,-0.433,-0.420,142.334,-14.526,-2.563
0.022,-0.485,-0.448,71.533,-11.475,5.981
0.021,-0.315,-0.287,21.729,-7.263,-14.404
0.096,-0.067,-0.262,5.066,-5.676,-19.470
0.143,-0.002,-0.342,6.165,-3.540,-11.902
0.173,0.019,-0.408,21.545,-4.944,-22.217
0.185,-0.016,-0.409,37.842,-10.010,-29.419
0.161,-0.045,-0.314,49.561,-16.418,-34.241
0.134,-0.078,-0.225,50.781,-16.479,-32.227
0.101,-0.078,-0.154,42.053,-10.803,-26.855
0.074,-0.067,-0.122,27.710,-3.113,-20.264
0.069,-0.024,-0.051,11.353,4.456,-16.418
0.061,0.034,0.037,-1.526,3.906,-9.338
0.079,0.106,0.130,-6.958,2.747,-2.441
0.085,0.149,0.212,-10.559,1.648,5.005
0.073,0.139,0.294,-5.920,2.808,11.169
0.065,0.139,0.323,-4.395,0.916,9.277
0.049,0.184,0.388,-9.888,0.427,6.775
0.015,0.232,0.459,-16.174,-0.366,6.958
-0.062,0.214,0.476,-22.705,-4.028,4.761
-0.134,0.198,0.470,-31.921,-10.620,-3.784
-0.250,0.143,0.470,-36.255,-18.127,-8.850
-0.219,0.170,0.520,-34.424,-23.560,-5.127
-0.258,0.126,0.587,-28.687,-30.273,1.892
-0.259,0.104,0.691,-32.654,-27.832,7.507
-0.222,0.124,0.797,-42.114,-26.306,7.080
-0.166,0.176,0.883,-45.105,-24.658,4.883
-0.164,0.152,0.982,-45.105,-19.287,6.165
-0.159,0.149,1.052,-47.180,-13.733,7.202
-0.151,0.135,1.030,-44.312,-14.954,10.498
-0.159,0.128,0.996,-36.987,-14.526,10.681
-0.156,0.106,0.979,-31.189,-10.010,11.536
-0.156,0.070,0.972,-26.184,-8.301,13.062
-0.170,0.012,0.962,-21.484,-4.761,15.137
-0.193,-0.042,0.979,-22.644,0.977,17.700
-0.193,-0.046,0.993,-25.818,2.747,17.151
-0.172,-0.025,0.999,-24.109,0.122,18.372
-0.148,-0.013,0.990,-18.982,-3.235,19.104
-0.138,-0.008,0.997,-12.329,-7.812,20.081
-0.144,-0.012,0.993,-14.282,-10.559,20.813
-0.141,0.021,0.940,-21.545,-12.451,19.775
-0.135,0.084,0.918,-26.367,-13.794,16.907
-0.139,0.118,0.918,-28.687,-14.893,16.418
-0.123,0.153,0.913,-30.518,-16.968,17.700
-0.108,0.179,0.911,-35.461,-15.503,18.188
-0.108,0.157,0.928,-40.955,-9.216,20.081
-0.109,0.112,0.967,-46.570,-4.883,20.203
-0.130,0.109,1.031,-43.579,-5.493,20.020
-0.106,0.099,1.037,-37.415,-4.822,19.043
-0.114,0.095,1.045,-28.259,-7.690,21.973
-0.116,0.100,1.015,-25.940,-7.751,20.996
-0.125,0.111,1.013,-25.391,-3.967,16.846
-0.113,0.131,1.004,-23.804,-5.188,11.108
-0.104,0.150,1.037,-17.029,-9.460,5.798
-0.111,0.123,1.087,-13.245,-11.597,6.165
-0.119,0.066,1.119,-13.611,-8.484,7.324
-0.118,0.047,1.128,-19.287,-4.639,8.362
-0.114,0.041,1.118,-26.794,-0.244,9.338
-0.112,0.049,1.108,-31.128,1.770,9.338
-0.107,0.078,1.079,-32.043,0.183,7.874
-0.102,0.099,1.043,-27.344,-2.258,8.118
-0.106,0.090,1.003,-21.301,-3.235,8.606
-0.115,0.060,0.987,-18.372,-3.113,9.033
-0.120,0.035,0.985,-16.235,-2.380,8.362
-0.112,0.025,1.008,-12.756,-0.671,8.362
-0.096,0.029,0.999,-10.742,-0.305,7.812
-0.063,0.055,0.978,-8.728,-0.549,3.967
-0.064,0.067,0.996,-5.005,-2.380,-1.160
-0.079,0.046,1.000,-1.587,-3.906,-5.127
-0.096,0.011,1.008,3.357,-3.906,-6.348
-0.115,-0.018,1.003,5.066,-2.441,-5.249
-0.120,-0.038,0.959,0.183,0.183,-4.578
-0.123,-0.047,0.882,-7.141,2.808,-3.113
-0.138,-0.042,0.822,-11.963,4.333,-0.549
-0.156,-0.027,0.771,-16.113,0.916,2.075
-0.163,-0.004,0.733,-22.522,-1.160,4.883
-0.155,0.019,0.721,-25.024,-3.174,7.080
-0.150,0.026,0.766,-21.606,-6.592,9.155
-0.138,0.029,0.818,-18.921,-9.644,10.315
-0.140,0.015,0.896,-16.479,-8.606,9.155
-0.126,0.016,0.943,-15.381,-8.667,6.775
-0.112,0.016,0.957,-10.071,-10.559,5.005
-0.105,-0.007,0.972,-2.625,-11.475,2.991
-0.112,-0.024,1.002,2.441,-12.085,2.197
-0.095,-0.036,1.004,3.723,-11.414,2.502
-0.082,-0.039,0.990,2.686,-12.085,1.404
-0.077,-0.036,0.981,0.183,-12.695,1.709
-0.074,-0.036,0.984,-2.136,-12.268,2.502
-0.076,-0.033,0.995,-5.310,-10.925,4.089
-0.068,-0.021,0.984,-12.207,-8.423,3.845
-0.072,-0.016,0.968,-16.418,-7.202,4.700
-0.069,-0.015,0.973,-18.127,-4.578,6.531
-0.070,-0.013,0.986,-20.508,0.366,10.071
-0.063,-0.016,0.960,-22.461,5.798,11.047
-0.064,-0.012,0.948,-20.569,7.935,10.925
-0.078,-0.040,0.936,-11.169,12.146,10.437
-0.119,-0.062,0.947,-6.714,16.418,5.005
-0.119,-0.049,0.916,-7.690,13.123,6.165
-0.113,-0.051,0.858,-7.690,8.484,5.127
-0.135,-0.042,0.855,-5.676,1.892,3.418
-0.123,-0.050,0.847,-5.066,-1.099,4.822
-0.121,-0.058,0.868,-5.188,-4.456,5.066
-0.119,-0.066,0.910,-8.911,-9.460,6.348

-0.157,-0.170,3.371,86.426,-55.847,-28.870
-0.206,-0.240,3.470,93.384,-47.119,-30.029
-0.235,-0.329,3.442,102.600,-28.442,-32.227
-0.189,-0.367,3.178,119.385,-3.296,-32.166
-0.104,-0.375,2.806,135.864,25.330,-29.358
0.021,-0.339,2.438,146.423,45.105,-23.743
0.046,-0.369,2.122,144.165,59.998,-18.005
0.021,-0.314,1.840,134.583,72.021,-14.893
0.004,-0.187,1.493,132.324,75.806,-15.076
0.009,-0.069,1.171,147.034,77.637,-13.977
0.044,0.050,0.849,162.048,65.613,-18.066
0.089,0.076,0.506,170.166,50.354,-21.240
0.083,0.009,0.187,163.086,29.541,-28.687
0.050,-0.137,-0.108,149.963,12.512,-30.518
-0.005,-0.306,-0.344,135.254,-4.822,-29.053
-0.062,-0.439,-0.473,111.572,-24.292,-19.531
-0.095,-0.503,-0.541,73.792,-24.475,-5.249
-0.101,-0.513,-0.502,33.691,-12.146,-1.892
-0.069,-0.352,-0.390,5.615,-5.127,-9.827
0.009,-0.132,-0.383,-6.775,-5.371,-17.944
0.038,0.000,-0.408,0.610,-10.620,-28.198
0.026,0.031,-0.405,10.864,-12.146,-39.063
-0.020,0.000,-0.375,19.897,-12.878,-46.509
-0.078,-0.058,-0.365,28.809,-13.855,-50.049
-0.088,-0.104,-0.348,33.875,-15.320,-47.913
-0.120,-0.141,-0.285,35.217,-18.433,-41.077
-0.119,-0.151,-0.216,29.358,-20.142,-30.518
-0.082,-0.105,-0.148,14.465,-20.081,-19.104
-0.058,-0.054,-0.024,-0.244,-19.165,-9.888
-0.033,0.007,0.137,-5.554,-13.489,-1.282
0.011,0.087,0.262,-5.310,-7.446,6.104
0.046,0.125,0.360,-6.470,-0.732,17.517
0.056,0.207,0.454,-11.475,2.014,23.193
0.060,0.282,0.534,-16.296,5.249,27.710
0.061,0.330,0.571,-22.461,8.057,25.269
0.032,0.383,0.586,-24.231,6.531,17.639
-0.028,0.397,0.584,-22.278,2.747,8.850
-0.062,0.368,0.522,-18.616,-2.686,4.395
-0.086,0.305,0.482,-12.451,-8.301,1.953
-0.084,0.287,0.516,-7.996,-16.541,2.747
-0.080,0.260,0.627,-7.629,-21.545,6.775
-0.060,0.290,0.826,-5.859,-21.118,11.475
-0.068,0.300,0.981,-17.578,-13.550,19.897
-0.079,0.271,1.029,-41.138,-2.197,23.193
-0.089,0.247,1.046,-49.805,2.747,22.400
-0.099,0.233,1.042,-44.067,2.563,23.621
-0.111,0.213,0.988,-34.729,0.183,22.034
-0.099,0.214,0.944,-30.457,0.122,19.226
-0.113,0.172,0.865,-34.729,-1.221,20.020
-0.109,0.146,0.803,-38.391,-3.052,14.465
-0.125,0.068,0.838,-33.386,-6.104,12.512
-0.146,0.003,0.882,-32.410,-10.925,15.320
-0.145,-0.048,0.943,-32.837,-11.780,20.691
-0.126,-0.055,1.013,-32.410,-10.498,27.039
-0.078,-0.046,1.027,-33.691,-10.864,31.921
-0.018,0.022,1.029,-33.325,-12.939,33.508
0.008,0.083,1.056,-36.682,-12.634,29.846
0.021,0.160,1.092,-47.180,-11.658,23.926
0.017,0.179,1.079,-47.791,-14.465,20.325
-0.015,0.185,1.075,-43.640,-18.616,15.320
-0.042,0.162,1.068,-39.551,-20.386,13.794
-0.062,0.114,1.063,-28.931,-22.095,16.296
-0.075,0.081,1.081,-23.193,-20.447,19.470
-0.049,0.086,1.076,-24.902,-16.968,22.339
-0.036,0.122,1.115,-27.161,-12.573,23.132
-0.017,0.135,1.083,-30.029,-7.874,23.865
-0.027,0.148,1.086,-28.015,-4.272,23.071
-0.015,0.157,1.078,-26.306,0.854,21.057
-0.026,0.155,1.062,-21.667,1.343,20.264
-0.040,0.160,1.045,-17.517,2.075,16.479
-0.060,0.132,1.009,-15.015,1.831,14.282
-0.076,0.107,0.971,-12.268,1.770,12.573
-0.073,0.104,0.956,-8.606,1.587,11.292
-0.063,0.099,0.942,-5.798,-0.305,10.559
-0.056,0.099,0.938,-3.296,-3.052,9.460
-0.059,0.077,0.945,-2.991,-4.517,10.193
-0.060,0.079,0.947,-6.592,-5.798,9.705
-0.068,0.098,0.952,-10.803,-7.019,8.606
-0.066,0.113,0.951,-13.123,-7.690,7.812
-0.056,0.143,0.978,-12.512,-8.423,6.836
-0.037,0.129,0.981,-12.451,-7.385,7.996
-0.040,0.157,1.038,-16.968,-5.066,4.456
-0.033,0.109,1.047,-16.174,-1.892,11.292
-0.035,0.103,1.062,-14.648,0.488,12.756
-0.021,0.105,1.073,-12.024,2.808,14.771
-0.018,0.104,1.086,-10.925,4.700,15.869
-0.021,0.110,1.078,-12.329,6.470,14.893
-0.024,0.112,1.048,-12.939,5.493,13.672
-0.032,0.107,1.026,-13.062,4.395,12.207
-0.041,0.115,0.973,-13.977,0.793,10.254
-0.047,0.106,0.925,-12.817,-3.052,9.521
-0.053,0.101,0.883,-12.573,-5.066,9.399
-0.062,0.086,0.865,-12.878,-4.578,9.827
-0.069,0.073,0.855,-14.282,-4.272,10.254
-0.081,0.062,0.881,-14.282,-2.136,10.559
-0.081,0.049,0.919,-11.047,0.061,11.108
-0.075,0.040,0.949,-5.798,1.038,11.047
-0.051,0.029,0.982,3.296,3.723,13.855
-0.043,0.012,0.990,4.395,3.967,13.428
-0.045,0.001,0.997,2.136,6.226,12.756
-0.038,0.002,0.985,0.488,9.338,13.184
-0.035,0.020,0.967,-1.953,9.888,10.620
-0.035,0.026,0.939,-2.625,10.010,7.935
-0.049,0.015,0.930,-1.709,8.789,5.615
-0.066,-0.016,0.913,-1.953,8.118,4.883
-0.074,-0.040,0.896,-3.418,8.484,6.409
-0.083,-0.042,0.921,-6.287,8.240,10.071
-0.066,-0.049,0.881,-14.282,8.423,14.771
-0.073,-0.024,0.869,-17.090,15.930,15.747
-0.072,0.003,0.842,-19.287,18.250,16.907
-0.078,0.029,0.830,-20.142,16.907,16.724
-0.063,0.042,0.822,-17.517,15.381,15.320
-0.075,0.040,0.887,-13.916,13.733,12.512
-0.075,0.019,0.931,-6.042,10.193,14.648
-0.060,0.042,0.971,-3.601,8.972,11.536
-0.055,0.052,1.017,0.305,7.080,10.742
-0.046,0.062,1.044,0.183,7.751,9.399
-0.050,0.078,1.057,-5.554,9.399,6.531
-0.057,0.080,1.045,-9.949,10.193,2.808

-0.485,-0.232,2.925,13.245,-36.011,-27.161
-0.500,-0.297,2.906,12.573,-23.682,-20.630
-0.473,-0.409,2.820,23.865,0.427,-5.249
-0.367,-0.489,2.651,42.725,22.461,6.836
-0.253,-0.531,2.463,59.998,41.260,10.071
-0.168,-0.541,2.233,75.073,55.115,10.742
-0.093,-0.459,1.933,92.163,65.552,9.216
-0.023,-0.293,1.612,111.145,78.857,9.216
0.022,-0.178,1.187,139.160,71.289,6.836
0.091,-0.106,0.853,176.758,52.917,0.854
0.115,-0.118,0.655,228.027,19.653,-0.977
0.127,-0.202,0.441,273.987,-14.282,-3.845
0.215,-0.210,0.219,279.480,-31.860,-15.930
0.213,-0.291,-0.010,221.985,-33.569,-25.879
0.163,-0.360,-0.254,122.070,-28.137,-33.630
0.047,-0.415,-0.347,37.170,-10.071,-41.809
-0.021,-0.426,-0.338,-9.766,-3.418,-49.500
-0.079,-0.266,-0.189,-5.981,-1.221,-59.387
-0.029,-0.107,-0.208,17.578,1.587,-55.359
0.023,-0.023,-0.306,33.569,4.639,-59.082
0.058,-0.002,-0.392,38.208,5.920,-69.092
0.039,0.025,-0.368,38.635,8.545,-74.890
0.029,0.029,-0.329,39.063,12.024,-68.604
0.029,0.018,-0.285,37.231,14.099,-56.152
0.033,0.021,-0.255,25.330,17.822,-46.021
0.058,0.034,-0.148,7.385,27.344,-38.818
0.022,0.045,0.031,2.441,18.433,-29.175
0.018,0.035,0.153,5.493,10.498,-17.029
0.000,0.027,0.257,7.019,8.972,-7.202
-0.040,0.016,0.371,0.427,6.165,-2.563
-0.041,0.061,0.448,-4.639,8.057,3.296
-0.051,0.107,0.490,-2.502,4.761,12.085
-0.057,0.159,0.502,-0.732,0.427,17.578
-0.061,0.215,0.504,-5.127,-2.502,18.799
-0.088,0.220,0.538,-13.428,-7.324,19.409
-0.137,0.239,0.581,-20.508,-11.230,13.672
-0.161,0.255,0.663,-18.127,-15.381,10.681
-0.176,0.254,0.733,-12.085,-21.179,13.672
-0.175,0.212,0.793,-9.155,-24.048,18.127
-0.185,0.162,0.867,-14.587,-22.217,18.372
-0.172,0.129,0.890,-23.254,-18.738,18.738
-0.147,0.105,0.894,-26.306,-17.456,18.433
-0.124,0.067,0.923,-24.048,-17.212,17.944
-0.110,0.069,0.947,-20.447,-17.822,15.198
-0.105,0.059,0.952,-19.409,-16.785,13.367
-0.107,0.068,0.935,-20.874,-16.235,10.681
-0.110,0.086,0.903,-21.118,-18.005,8.606
-0.123,0.092,0.887,-19.470,-20.325,6.409
-0.140,0.082,0.878,-16.296,-23.560,9.583
-0.148,0.078,0.865,-14.038,-23.071,12.573
-0.157,0.066,0.866,-17.639,-18.921,18.188
-0.133,0.071,0.837,-25.818,-13.428,23.682
-0.113,0.080,0.849,-30.701,-8.423,28.137
-0.100,0.046,0.864,-33.630,-3.662,31.189
-0.084,0.024,0.900,-30.518,-3.357,31.982
-0.075,0.029,0.918,-26.733,0.366,34.851
-0.052,0.050,0.946,-18.066,-0.549,32.227
-0.040,0.078,0.960,-8.423,-5.493,28.442
-0.037,0.117,0.987,-4.333,-6.836,23.254
-0.032,0.158,1.030,-2.319,-11.475,19.653
-0.042,0.178,1.068,-7.385,-10.986,15.442
-0.056,0.141,1.080,-14.282,-5.798,14.771
-0.067,0.102,1.056,-19.958,-1.831,14.893
-0.081,0.086,1.042,-24.414,4.639,14.343
-0.091,0.105,1.040,-29.236,8.179,15.991
-0.108,0.114,1.023,-27.222,9.644,22.522
-0.114,0.125,0.976,-26.550,13.794,24.902
-0.114,0.146,0.935,-26.855,18.372,26.123
-0.099,0.168,0.893,-24.719,19.958,27.039
-0.085,0.167,0.890,-18.372,17.151,26.367
-0.074,0.165,0.914,-15.930,15.320,23.132
-0.073,0.181,0.952,-16.174,8.362,23.010
-0.084,0.180,0.983,-17.578,1.038,22.461
-0.090,0.183,0.996,-20.447,-1.709,20.935
-0.101,0.191,1.000,-24.780,-5.493,21.179
-0.107,0.183,0.975,-29.846,-7.141,21.545
-0.116,0.158,0.967,-30.823,-7.629,21.667
-0.119,0.120,0.967,-31.799,-7.385,23.560
-0.100,0.095,0.970,-34.729,-5.676,25.208
-0.088,0.082,0.994,-33.875,-3.723,25.696
-0.070,0.072,1.004,-31.494,-0.793,25.452
-0.054,0.089,1.010,-27.710,-0.366,22.217
-0.065,0.077,1.040,-18.738,-1.465,19.531
-0.069,0.047,1.063,-12.329,-1.831,16.418
-0.069,0.042,1.076,-8.362,-2.014,12.451
-0.072,0.037,1.060,-4.333,-2.258,9.766
-0.070,0.042,1.036,-1.831,-2.258,6.897
-0.082,0.033,1.013,-0.610,-1.282,5.554
-0.098,0.020,0.970,-2.380,-0.305,4.028
-0.109,0.018,0.922,-6.836,0.732,4.272
-0.099,0.033,0.864,-12.268,0.000,4.089
-0.099,0.033,0.840,-14.221,-2.563,4.028
-0.104,0.020,0.857,-13.184,-5.432,4.639
-0.118,-0.002,0.896,-11.353,-7.263,6.836
-0.128,-0.033,0.931,-8.850,-6.409,10.498
-0.134,-0.054,0.935,-11.108,-2.563,14.404
-0.129,-0.045,0.914,-17.090,2.502,17.456
-0.117,-0.015,0.873,-21.729,5.066,18.555
-0.104,0.034,0.842,-22.949,4.700,16.052
-0.097,0.055,0.827,-20.447,1.892,13.000
-0.091,0.058,0.828,-15.137,-3.052,9.155
-0.084,0.054,0.860,-7.996,-9.033,5.981
-0.069,0.043,0.909,0.061,-14.587,4.700
-0.066,0.030,0.979,3.540,-15.869,3.174
-0.076,0.003,1.033,0.977,-12.512,4.333
-0.082,-0.006,1.054,-6.348,-6.470,5.981
-0.085,-0.002,1.056,-12.817,-0.122,8.789
-0.086,0.021,1.032,-18.677,4.089,10.254
-0.089,0.042,0.992,-21.973,5.981,11.719
-0.089,0.064,0.966,-23.071,5.249,11.292
-0.096,0.071,0.980,-19.897,3.113,10.498
-0.100,0.055,0.990,-17.090,1.160,9.949
-0.094,0.047,0.987,-15.808,0.122,8.850
-0.077,0.052,0.970,-13.611,-0.977,7.568
-0.073,0.039,0.963,-11.719,-2.441,4.822
-0.073,0.016,0.979,-8.606,-4.700,2.197
-0.080,-0.006,1.004,-4.822,-5.798,0.610
-0.087,-0.011,1.008,-4.761,-5.615,-0.732
-0.083,-0.009,0.990,-4.700,-5.432,-2.075

-0.216,-0.410,3.149,67.749,-67.444,-79.102
-0.234,-0.459,3.276,75.012,-61.157,-70.984
-0.155,-0.575,3.351,91.797,-45.227,-47.791
-0.039,-0.619,3.226,100.281,-12.817,-33.264
0.046,-0.670,3.034,102.783,28.198,-26.428
0.068,-0.649,2.806,102.905,66.345,-24.048
0.126,-0.554,2.399,98.145,99.426,-21.667
0.207,-0.381,1.967,100.647,118.958,-16.968
0.257,-0.163,1.434,106.567,122.009,-18.066
0.316,-0.025,0.916,130.127,112.427,-27.161
0.333,0.048,0.532,164.062,95.154,-45.044
0.321,-0.035,0.169,190.186,66.040,-55.969
0.204,-0.260,-0.095,201.538,40.833,-58.289
0.044,-0.574,-0.309,174.988,18.433,-47.363
-0.095,-0.758,-0.489,109.924,8.545,-32.227
-0.200,-0.780,-0.583,36.133,10.254,-20.874
-0.216,-0.609,-0.529,-17.334,14.160,-16.846
-0.143,-0.293,-0.520,-38.635,15.991,-6.409
-0.040,-0.028,-0.497,-33.752,17.151,-0.183
0.026,0.158,-0.448,-13.062,11.475,-8.301
0.095,0.238,-0.400,7.141,18.433,-24.109
0.030,0.138,-0.335,24.597,20.264,-32.837
0.007,0.004,-0.316,43.457,15.503,-40.955
-0.038,-0.105,-0.232,63.232,10.254,-41.931
-0.070,-0.169,-0.147,66.040,7.996,-38.696
-0.087,-0.198,-0.086,52.979,9.155,-31.128
-0.059,-0.141,-0.013,29.846,16.296,-22.888
-0.034,-0.092,0.091,8.179,25.146,-15.869
0.025,0.032,0.216,-13.550,25.574,-10.559
0.071,0.121,0.348,-17.761,19.714,-0.732
0.054,0.145,0.469,-16.907,13.611,11.597
0.065,0.185,0.527,-17.639,14.954,19.653
0.048,0.196,0.577,-17.578,19.165,27.527
0.067,0.253,0.606,-26.184,23.621,25.696
0.035,0.291,0.611,-30.029,23.865,25.452
-0.028,0.254,0.620,-24.292,18.982,21.179
-0.074,0.224,0.633,-13.306,14.893,13.428
-0.114,0.156,0.637,1.099,5.615,14.099
-0.156,0.054,0.645,7.874,-2.502,15.747
-0.195,-0.042,0.664,3.845,-6.714,17.273
-0.215,-0.097,0.665,-9.277,-9.521,19.348
-0.209,-0.084,0.676,-26.001,-14.587,20.325
-0.206,-0.057,0.707,-35.828,-22.705,22.705
-0.199,-0.028,0.788,-40.100,-27.771,25.391
-0.177,0.034,0.914,-42.786,-31.311,26.733
-0.162,0.056,1.031,-40.466,-31.677,27.405
-0.175,0.031,1.135,-35.095,-26.672,26.978
-0.176,0.008,1.144,-30.334,-19.958,26.611
-0.174,0.036,1.089,-28.137,-13.733,24.292
-0.178,0.035,1.021,-25.330,-10.315,20.813
-0.195,0.032,1.017,-19.653,-10.437,19.409
-0.195,0.027,1.002,-14.465,-12.878,18.005
-0.184,0.031,0.990,-13.916,-14.954,16.724
-0.164,0.028,0.981,-14.404,-17.517,15.564
-0.167,0.019,1.021,-12.268,-19.897,15.991
-0.166,-0.008,1.080,-12.268,-19.775,19.409
-0.140,-0.017,1.088,-16.541,-17.456,22.095
-0.120,0.010,1.084,-18.433,-11.963,20.996
-0.100,0.006,1.086,-21.790,-9.033,19.897
-0.094,0.013,1.124,-12.329,-15.320,19.226
-0.082,0.000,1.157,-4.028,-15.076,20.630
-0.068,-0.013,1.134,-5.981,-9.888,20.264
-0.072,0.001,1.125,-7.935,-3.418,19.287
-0.068,-0.015,1.071,-15.015,0.732,19.592
-0.084,-0.026,1.020,-18.799,2.625,18.677
-0.091,-0.031,0.990,-20.569,3.784,19.226
-0.097,-0.023,0.951,-23.437,3.479,19.775
-0.101,-0.025,0.931,-23.315,2.747,20.447
-0.102,-0.029,0.923,-24.780,1.892,19.714
-0.100,-0.021,0.898,-27.039,0.366,18.738
-0.078,-0.011,0.889,-29.053,2.625,12.817
-0.074,0.011,0.893,-28.076,0.916,14.648
-0.080,0.026,0.883,-24.353,-0.122,11.658
-0.099,0.017,0.870,-22.461,0.671,7.996
-0.110,0.021,0.834,-19.287,-0.488,6.226
-0.125,-0.011,0.843,-11.658,-4.211,8.362
-0.146,-0.043,0.886,-5.310,-9.460,11.475
-0.161,-0.059,0.941,-4.883,-10.498,15.686
-0.158,-0.042,0.976,-9.827,-9.216,18.311
-0.144,-0.018,0.971,-16.968,-7.874,20.508
-0.124,0.017,0.938,-23.560,-6.775,20.569
-0.106,0.042,0.919,-24.658,-8.118,19.531
-0.094,0.047,0.938,-19.714,-12.451,17.700
-0.090,0.044,0.978,-15.991,-15.564,15.686
-0.088,0.014,1.011,-13.794,-15.991,14.893
-0.082,-0.008,1.046,-10.559,-15.198,14.648
-0.083,-0.046,1.080,-7.690,-11.780,15.747
-0.085,-0.071,1.098,-8.301,-6.836,15.442
-0.073,-0.067,1.083,-9.766,-2.319,15.930
-0.065,-0.066,1.039,-9.949,1.465,16.846
-0.062,-0.046,0.994,-11.597,3.479,16.602
-0.060,-0.033,0.961,-12.695,3.784,15.442
-0.062,-0.029,0.932,-13.062,0.916,13.916
-0.061,-0.030,0.914,-13.000,-2.136,13.184
-0.064,-0.031,0.905,-12.756,-4.211,13.123
-0.051,-0.020,0.888,-14.282,-4.211,13.245
-0.044,-0.016,0.879,-16.296,-3.845,12.573
-0.043,-0.041,0.882,-16.846,-3.479,12.085
-0.063,-0.084,0.901,-16.724,-4.150,9.216
-0.072,-0.103,0.924,-13.977,-4.272,9.888
-0.077,-0.102,0.930,-13.855,-3.723,10.681
-0.071,-0.094,0.914,-12.756,-3.113,11.658
-0.077,-0.098,0.899,-11.963,-3.174,11.536
-0.076,-0.094,0.872,-12.939,-3.723,10.620
-0.081,-0.078,0.860,-14.465,-6.042,9.155
-0.083,-0.059,0.864,-13.489,-9.094,8.118
-0.073,-0.045,0.895,-11.292,-12.207,6.287
-0.068,-0.050,0.963,-5.737,-15.259,5.859
-0.071,-0.063,1.016,-4.089,-15.808,5.249
-0.075,-0.067,1.074,-2.380,-13.794,5.127
-0.071,-0.059,1.104,-0.061,-10.986,5.737
-0.065,-0.055,1.109,1.648,-6.836,6.104
-0.054,-0.053,1.086,1.099,-2.441,5.432
-0.050,-0.052,1.047,-0.610,0.610,4.395
-0.048,-0.061,1.006,-0.427,2.075,3.723
-0.059,-0.055,0.986,7.202,8.728,1.953
-0.062,-0.070,0.962,1.160,4.578,5.188
-0.062,-0.077,0.919,-6.226,4.028,5.859
-0.068,-0.077,0.897,-10.620,5.615,5.493

-0.167,-0.352,3.069,97.900,-41.382,-29.724
-0.215,-0.619,3.096,110.474,-33.264,-22.766
-0.247,-0.780,2.974,102.783,-17.456,-15.442
-0.271,-0.788,2.807,89.050,8.362,-10.498
-0.246,-0.716,2.664,83.618,23.560,-7.080
-0.160,-0.526,2.298,79.346,46.692,2.441
-0.175,-0.386,1.967,85.449,59.875,5.615
-0.158,-0.242,1.629,86.365,71.106,2.075
-0.156,-0.114,1.239,82.031,74.829,-4.517
-0.148,-0.073,0.890,98.206,69.763,-4.639
-0.102,-0.123,0.617,128.784,56.152,-3.479
-0.058,-0.242,0.361,154.846,30.029,6.958
-0.077,-0.394,0.247,144.836,7.324,20.691
-0.086,-0.492,0.233,105.347,-3.967,29.114
-0.020,-0.485,0.257,61.157,-2.197,30.823
-0.006,-0.438,0.465,40.283,12.451,4.883
0.158,-0.092,0.436,36.316,33.142,-19.409
0.308,0.039,0.129,37.231,43.335,-37.903
0.362,0.205,-0.117,38.940,49.683,-73.181
0.355,0.258,-0.416,53.650,47.546,-85.815
0.299,0.186,-0.665,91.736,25.085,-87.708
0.132,0.028,-0.700,129.822,3.906,-82.825
0.068,-0.099,-0.662,138.489,-2.808,-71.106
0.003,-0.173,-0.621,123.657,-6.897,-49.866
-0.029,-0.194,-0.625,87.769,-4.395,-27.588
-0.021,-0.178,-0.597,43.213,0.610,-12.817
-0.069,-0.076,-0.416,11.353,3.601,-7.019
-0.068,0.016,-0.284,-1.221,4.517,3.662
-0.044,0.121,-0.190,-3.967,4.456,8.667
-0.034,0.202,-0.100,2.319,-3.540,10.254
-0.044,0.198,0.041,12.207,-11.108,10.803
-0.044,0.174,0.190,14.221,-15.930,7.568
-0.063,0.168,0.331,10.071,-18.738,3.235
-0.085,0.147,0.404,3.540,-21.606,1.831
-0.119,0.149,0.499,-8.301,-24.902,2.258
-0.133,0.177,0.591,-23.437,-27.100,5.798
-0.143,0.229,0.732,-35.522,-28.503,10.193
-0.123,0.262,0.874,-42.358,-27.771,14.099
-0.108,0.289,1.022,-38.940,-25.391,15.198
-0.098,0.288,1.109,-28.748,-20.386,15.686
-0.104,0.269,1.153,-23.865,-13.977,13.428
-0.124,0.217,1.150,-21.545,-9.338,10.498
-0.136,0.180,1.092,-18.921,-5.371,7.019
-0.132,0.157,1.023,-20.264,-5.737,3.784
-0.137,0.098,0.945,-20.874,-10.864,3.235
-0.153,0.047,0.931,-24.109,-13.000,3.662
-0.172,0.029,0.936,-35.095,-15.015,6.165
-0.166,0.062,0.898,-50.049,-13.611,9.216
-0.139,0.082,0.855,-62.439,-13.672,10.681
-0.128,0.056,0.876,-61.401,-16.541,10.803
-0.128,-0.006,0.902,-61.401,-15.747,12.085
-0.128,-0.032,0.904,-60.364,-14.648,13.550
-0.124,-0.067,0.880,-57.129,-11.292,14.954
-0.113,-0.055,0.870,-50.049,-4.700,12.939
-0.093,-0.049,0.850,-43.335,-7.507,13.245
-0.067,-0.032,0.842,-38.086,-14.771,9.888
-0.063,-0.030,0.896,-27.283,-22.278,8.850
-0.042,-0.031,0.938,-22.400,-27.161,6.531
-0.042,-0.029,0.993,-19.287,-32.654,8.179
-0.059,-0.053,1.038,-17.944,-33.142,8.972
-0.067,-0.080,1.059,-22.339,-28.870,11.719
-0.072,-0.083,1.050,-27.222,-25.330,14.160
-0.071,-0.071,1.038,-28.442,-23.193,16.846
-0.058,-0.047,1.067,-26.245,-22.705,18.738
-0.048,-0.028,1.077,-25.513,-22.766,20.813
-0.026,0.023,1.076,-26.245,-20.752,19.897
-0.009,0.059,1.095,-22.278,-19.897,19.409
-0.000,0.062,1.134,-20.935,-17.517,17.639
-0.008,0.058,1.178,-18.982,-12.512,16.296
-0.009,0.066,1.158,-21.484,-5.249,14.709
-0.011,0.069,1.097,-24.780,2.808,12.329
-0.013,0.078,1.057,-25.146,7.629,10.010
-0.025,0.063,1.026,-19.043,3.296,8.484
-0.044,0.013,1.018,-11.047,-0.305,9.155
-0.067,-0.036,1.027,-7.751,-1.099,10.010
-0.086,-0.075,1.033,-10.742,0.793,12.512
-0.089,-0.100,1.006,-16.724,4.333,15.564
-0.068,-0.047,0.977,-23.071,6.836,17.395
-0.037,0.021,0.969,-23.376,5.920,17.883
-0.024,0.039,0.995,-20.813,3.235,16.479
-0.025,0.025,1.025,-16.357,0.244,14.465
-0.011,0.013,1.030,-14.465,-1.160,12.268
-0.011,-0.015,1.018,-16.418,-0.732,10.376
-0.025,-0.064,1.014,-18.188,2.136,10.254
-0.029,-0.096,0.995,-20.691,5.066,11.414
-0.033,-0.109,0.964,-23.865,7.690,12.573
-0.035,-0.099,0.948,-23.010,7.324,13.184
-0.047,-0.097,0.945,-21.545,6.653,13.611
-0.057,-0.096,0.930,-20.447,6.226,13.489
-0.053,-0.076,0.901,-20.691,4.822,12.268
-0.060,-0.060,0.884,-17.822,1.770,11.353
-0.051,-0.044,0.868,-15.808,-1.282,10.376
-0.044,-0.040,0.883,-13.550,-4.272,9.460
-0.035,-0.048,0.915,-13.062,-5.493,8.728
-0.021,-0.054,0.945,-15.625,-4.639,6.775
-0.024,-0.074,0.994,-17.456,-3.174,4.456
-0.037,-0.109,1.023,-17.578,-0.122,4.211
-0.042,-0.139,1.014,-19.409,1.831,3.601
-0.042,-0.128,0.982,-15.991,1.099,4.639
-0.037,-0.138,0.958,-12.573,-0.366,5.920
-0.039,-0.129,0.943,-12.390,-2.014,5.676
-0.036,-0.126,0.935,-10.864,-2.869,6.531
-0.030,-0.120,0.907,-9.338,-4.211,7.141
-0.030,-0.116,0.880,-8.301,-9.033,7.629
-0.031,-0.114,0.857,-5.798,-11.292,8.667
-0.033,-0.121,0.838,-3.479,-14.038,8.789
-0.048,-0.123,0.832,-4.578,-15.198,8.301
-0.064,-0.134,0.826,-7.812,-14.221,9.033
-0.083,-0.154,0.815,-11.719,-12.817,10.437
-0.091,-0.154,0.801,-15.869,-11.475,11.719
-0.092,-0.144,0.793,-20.691,-9.827,12.573
-0.088,-0.133,0.797,-23.437,-9.583,12.146
-0.076,-0.117,0.803,-22.095,-10.986,12.268
-0.062,-0.112,0.824,-20.569,-12.207,11.475
-0.046,-0.100,0.862,-18.433,-13.062,10.437
-0.035,-0.078,0.885,-14.282,-14.160,8.728
-0.035,-0.083,0.907,-8.911,-15.320,5.981
-0.043,-0.095,0.929,-4.883,-16.296,3.174
-0.054,-0.122,0.943,-2.319,-14.954,2.014

-0.085,-0.493,3.122,77.881,-56.274,-52.490
-0.241,-0.706,3.483,101.746,-49.316,-43.945
-0.328,-0.833,3.603,116.455,-23.682,-32.410
-0.247,-0.792,3.313,120.361,14.221,-23.987
-0.152,-0.679,2.913,125.977,51.636,-19.897
-0.060,-0.567,2.515,136.108,73.425,-15.198
-0.055,-0.436,2.229,143.982,81.055,-22.949
-0.032,-0.351,1.962,163.940,84.106,-31.067
0.019,-0.254,1.649,190.491,79.712,-39.795
0.089,-0.138,1.286,197.266,76.782,-47.668
0.162,-0.111,0.798,184.021,69.153,-50.537
0.213,-0.153,0.271,178.101,45.227,-55.420
0.208,-0.304,-0.147,182.983,13.245,-52.124
0.147,-0.508,-0.399,167.786,-17.395,-43.518
0.036,-0.692,-0.495,124.390,-29.419,-29.236
0.019,-0.656,-0.595,53.101,-22.339,-20.508
0.047,-0.436,-0.662,-20.325,-10.010,-10.559
0.044,-0.179,-0.677,-72.632,-1.282,-7.996
0.035,0.044,-0.521,-73.792,-2.136,-21.057
0.001,0.200,-0.396,-29.663,-5.920,-30.823
0.026,0.257,-0.402,12.207,-3.357,-45.593
0.052,0.305,-0.489,40.894,-0.122,-59.387
0.015,0.209,-0.541,57.007,6.226,-64.941
-0.003,0.076,-0.612,60.730,8.423,-65.002
-0.045,-0.020,-0.606,49.805,6.897,-61.768
-0.030,-0.062,-0.558,41.077,3.662,-51.208
-0.029,-0.084,-0.393,35.522,1.648,-38.452
0.002,-0.063,-0.186,21.790,1.282,-24.170
0.022,-0.049,-0.082,12.390,0.977,-17.944
0.042,-0.015,0.116,-2.502,1.343,-8.179
0.041,-0.001,0.299,-12.634,4.333,-0.427
0.029,0.005,0.454,-21.851,4.700,5.371
0.026,0.004,0.521,-31.799,3.540,8.667
0.006,0.063,0.636,-39.734,4.150,10.315
0.000,0.132,0.692,-42.664,4.700,15.991
-0.021,0.151,0.706,-44.739,4.944,14.221
-0.060,0.154,0.767,-42.725,5.676,6.592
-0.094,0.114,0.790,-36.011,4.272,11.536
-0.100,0.026,0.734,-31.372,2.319,14.343
-0.099,-0.005,0.728,-30.640,-0.122,13.184
-0.114,-0.039,0.770,-26.306,-4.517,16.724
-0.135,-0.049,0.833,-21.667,-9.766,21.179
-0.129,-0.027,0.898,-20.569,-15.381,24.353
-0.134,-0.007,0.987,-24.841,-17.700,26.489
-0.135,-0.012,1.056,-32.776,-18.188,28.625
-0.129,0.009,1.125,-41.809,-16.235,30.945
-0.087,0.044,1.145,-39.063,-16.846,35.583
-0.056,0.045,1.170,-32.593,-14.709,32.715
-0.065,-0.012,1.210,-26.123,-13.855,31.128
-0.067,-0.051,1.206,-16.418,-7.996,27.588
-0.064,-0.036,1.132,-13.611,-5.371,22.949
-0.070,-0.010,1.056,-10.376,-4.395,20.935
-0.076,-0.002,0.997,-8.240,-4.211,20.996
-0.053,0.007,0.959,-9.338,-5.920,26.123
-0.088,0.030,0.928,-13.977,-9.277,27.527
-0.064,0.039,0.940,-12.024,-10.193,26.855
-0.058,0.031,1.007,-7.507,-11.475,28.503
-0.039,0.023,1.065,-8.789,-7.751,28.564
-0.021,0.042,1.061,-14.282,-4.211,26.794
-0.018,0.056,1.028,-16.052,-3.540,23.010
-0.032,0.057,1.025,-14.771,-5.859,18.799
-0.016,0.054,1.004,-15.198,-8.179,14.526
-0.034,0.031,1.002,-11.414,-11.780,16.113
-0.039,0.013,1.014,-11.963,-11.841,14.160
-0.050,-0.017,1.013,-10.376,-12.146,14.526
-0.039,-0.007,0.988,-8.789,-11.047,15.320
-0.044,-0.010,0.995,-7.874,-9.277,16.785
-0.043,-0.020,1.019,-7.019,-4.883,16.846
-0.048,0.008,1.049,-5.615,-0.854,17.700
-0.035,0.042,1.040,-1.038,0.732,18.738
-0.028,0.044,1.001,-2.502,2.502,16.541
-0.035,0.059,0.984,-8.179,3.357,12.939
-0.035,0.058,0.948,-9.521,0.671,12.695
-0.037,0.052,0.932,-12.329,-0.671,13.245
-0.055,0.044,0.904,-17.212,-3.357,15.320
-0.049,0.039,0.859,-21.423,-5.676,16.602
-0.051,0.036,0.862,-21.240,-9.949,17.334
-0.062,0.020,0.883,-20.081,-13.123,17.639
-0.070,-0.009,0.896,-20.630,-14.893,17.029
-0.078,-0.031,0.925,-19.653,-15.991,16.907
-0.074,-0.042,0.931,-17.578,-16.052,17.639
-0.062,-0.040,0.931,-16.235,-15.320,18.250
-0.051,-0.048,0.934,-14.282,-13.794,18.921
-0.032,-0.052,0.922,-13.611,-12.390,19.409
-0.017,-0.040,0.932,-13.123,-11.902,18.555
-0.009,-0.037,0.961,-9.949,-10.498,19.043
-0.001,-0.034,0.984,-9.155,-7.080,18.860
0.002,-0.020,1.001,-7.568,-2.075,17.883
0.009,0.004,1.000,-7.202,2.380,18.860
0.016,-0.002,0.972,-11.597,0.061,17.456
-0.001,-0.011,0.953,-13.062,-0.671,15.991
-0.008,-0.024,0.934,-12.634,-0.854,15.259
-0.012,-0.021,0.921,-12.817,-1.038,15.381
-0.002,-0.006,0.898,-13.855,-1.221,15.686
0.001,0.000,0.876,-13.367,-1.709,15.930
-0.005,0.020,0.885,-11.292,-0.977,14.160
-0.005,0.014,0.874,-11.108,-1.831,14.465
-0.011,0.027,0.882,-10.681,-4.639,12.451
-0.018,0.030,0.888,-9.949,-3.967,10.498
-0.027,0.019,0.890,-7.751,-3.845,8.606
-0.045,-0.008,0.900,-3.296,-3.235,7.324
-0.049,-0.042,0.904,-1.648,-1.831,8.423
-0.073,-0.068,0.933,-1.160,2.869,11.047
-0.061,-0.098,0.928,-3.296,5.432,14.465
-0.051,-0.071,0.924,-9.399,5.005,15.320
-0.034,-0.066,0.946,-14.282,2.319,15.747
-0.037,-0.062,0.987,-14.771,-0.671,14.587
-0.034,-0.071,1.018,-11.902,-0.854,14.282
-0.025,-0.071,1.030,-10.498,-1.343,12.756
-0.031,-0.059,1.031,-7.996,-2.136,10.681
-0.024,-0.057,1.022,-5.737,-4.456,8.118
-0.034,-0.060,1.019,-2.197,-7.385,5.798
-0.036,-0.072,1.023,-1.099,-7.507,4.517
-0.038,-0.079,1.005,-4.089,-5.554,4.944
-0.038,-0.085,0.982,-7.935,-3.601,5.676
-0.043,-0.083,0.963,-11.230,-1.160,7.446
-0.029,-0.072,0.949,-15.808,0.732,8.911
-0.017,-0.046,0.945,-19.470,1.343,9.521
-0.015,-0.049,0.964,-19.104,1.160,9.277

-0.182,-0.191,3.138,52.795,2.197,-49.744
-0.228,-0.212,3.194,59.692,4.761,-50.781
-0.082,-0.259,3.137,81.970,8.362,-43.030
-0.260,-0.493,3.088,121.582,14.648,-28.503
-0.266,-0.646,3.048,152.527,35.339,-21.240
-0.238,-0.671,2.762,155.518,59.570,-8.301
-0.188,-0.658,2.331,143.860,83.191,-3.479
-0.163,-0.562,1.874,129.639,98.633,-9.033
-0.085,-0.388,1.333,114.014,99.976,-18.250
-0.014,-0.231,0.839,104.492,89.294,-27.649
0.011,-0.159,0.417,106.079,73.914,-33.691
0.063,-0.140,-0.095,105.225,54.321,-46.082
0.107,-0.230,-0.414,116.272,27.222,-49.255
0.039,-0.417,-0.529,110.657,7.812,-38.391
0.108,-0.489,-0.551,78.857,-0.732,-26.184
0.137,-0.475,-0.556,32.654,-4.028,-11.169
0.177,-0.243,-0.579,-15.320,-9.460,-7.690
0.207,0.104,-0.602,-38.513,-10.681,-19.775
0.209,0.280,-0.597,-28.076,-13.733,-35.278
0.164,0.365,-0.484,22.217,-13.489,-57.678
0.121,0.333,-0.474,85.571,-15.991,-67.261
0.100,0.255,-0.555,117.432,-12.451,-71.594
0.051,0.098,-0.688,106.995,-5.066,-70.374
-0.011,-0.017,-0.779,82.886,-1.709,-66.711
-0.083,-0.068,-0.721,64.392,-5.615,-57.678
-0.123,-0.104,-0.572,50.476,-11.169,-37.415
-0.120,-0.108,-0.301,32.532,-7.263,-15.625
0.058,0.064,0.006,8.118,-11.230,-0.549
-0.037,-0.003,-0.021,4.517,-23.010,15.076
-0.021,0.015,0.123,-3.784,-22.156,16.602
-0.065,0.053,0.283,0.061,-39.429,6.958
-0.050,-0.043,0.350,-7.324,-41.077,10.010
-0.074,-0.019,0.458,-25.452,-39.185,8.179
-0.082,0.081,0.598,-38.818,-37.231,8.606
-0.082,0.136,0.703,-47.791,-36.316,11.230
-0.092,0.145,0.838,-43.396,-29.907,15.686
-0.084,0.118,1.005,-36.438,-20.264,25.085
-0.061,0.138,1.116,-37.781,-9.888,31.555
-0.057,0.136,1.162,-43.030,2.197,32.654
-0.008,0.105,1.054,-46.265,10.010,38.147
0.016,0.093,1.003,-46.936,10.071,31.433
0.004,0.049,0.994,-46.753,10.315,28.687
-0.030,-0.018,0.948,-49.011,10.559,29.663
-0.046,-0.047,0.924,-50.598,-0.427,25.391
-0.062,-0.055,0.985,-46.631,-10.315,21.545
-0.085,-0.052,1.037,-42.664,-12.085,21.667
-0.076,-0.076,1.076,-36.865,-8.728,27.039
-0.057,-0.051,1.093,-40.710,-1.953,28.687
-0.049,-0.043,1.077,-44.312,3.845,27.161
-0.046,-0.060,1.023,-38.818,5.981,25.574
-0.043,-0.079,0.982,-30.029,3.784,23.682
-0.062,-0.069,0.939,-27.466,-3.601,20.508
-0.078,-0.062,0.881,-29.297,-10.559,16.235
-0.093,-0.033,0.875,-29.846,-18.616,10.742
-0.091,-0.031,0.913,-25.818,-29.053,8.972
-0.114,-0.035,1.022,-17.212,-31.738,12.146
-0.113,-0.025,1.101,-5.737,-25.574,24.841
-0.062,-0.022,1.117,-2.625,-17.029,35.889
-0.022,-0.010,1.057,-7.080,-9.705,36.133
-0.018,-0.004,1.052,-7.568,-5.493,33.020
-0.031,-0.022,1.043,-0.122,-5.554,27.710
-0.042,-0.043,1.071,-1.709,-8.057,24.963
-0.054,-0.053,1.043,-8.850,-11.047,20.691
-0.060,-0.053,1.044,-11.841,-13.489,17.395
-0.042,-0.047,1.063,-11.902,-14.954,17.395
-0.046,-0.063,1.085,-17.456,-13.855,16.113
-0.026,-0.048,1.074,-22.583,-12.939,17.517
-0.012,-0.001,1.042,-26.489,-11.841,16.846
-0.021,0.040,1.022,-23.560,-9.644,15.259
-0.019,0.078,1.015,-23.804,-6.775,10.803
-0.040,0.014,0.917,-26.733,-2.380,12.817
-0.047,0.045,0.874,-25.635,0.549,4.517
-0.058,0.026,0.864,-16.846,-2.319,7.874
-0.063,-0.044,0.859,-9.460,-5.676,9.277
-0.078,-0.089,0.888,-7.751,-4.700,10.376
-0.070,-0.118,0.875,-10.132,-4.211,11.780
-0.065,-0.133,0.884,-13.123,-0.854,14.954
-0.044,-0.143,0.867,-13.672,-0.793,18.494
-0.023,-0.118,0.833,-14.893,-2.869,19.897
-0.021,-0.081,0.832,-15.381,-2.930,20.813
-0.020,-0.045,0.863,-19.104,-1.404,19.165
-0.019,-0.009,0.868,-20.569,-0.793,18.982
-0.131,-0.040,0.842,-15.442,-2.563,14.282
-0.002,-0.000,0.900,-8.728,2.197,15.259
-0.047,0.020,0.977,-4.272,5.615,12.939
-0.017,-0.069,1.077,14.038,6.531,20.508
-0.032,-0.095,1.096,9.094,6.104,21.240
-0.049,-0.131,1.122,-0.732,8.789,21.973
-0.031,-0.085,1.036,-11.963,9.460,19.165
-0.039,-0.039,0.933,-27.710,7.690,14.221
-0.025,0.021,0.864,-37.537,4.211,9.094
-0.038,0.006,0.842,-34.851,-1.404,5.859
-0.037,-0.030,0.868,-29.297,-4.272,0.244
-0.045,-0.067,0.897,-26.489,-7.385,0.427
-0.046,-0.105,0.904,-25.818,-7.751,1.099
-0.048,-0.125,0.922,-22.339,-6.714,3.357
-0.025,-0.151,0.976,-13.794,-4.944,7.263
-0.044,-0.143,1.026,-14.893,-0.977,10.803
-0.049,-0.122,1.049,-20.264,4.944,15.442
-0.033,-0.091,1.016,-22.827,10.742,19.958
-0.022,-0.080,0.953,-23.071,10.437,17.578
-0.029,-0.038,0.941,-19.165,8.484,10.681
-0.035,-0.062,0.914,-10.986,6.165,8.606
-0.047,-0.116,0.913,-3.906,3.296,7.141
-0.025,-0.131,0.932,3.235,0.366,7.263
-0.014,-0.146,0.978,4.150,-2.075,5.920
-0.048,-0.156,1.024,2.075,-1.526,7.568
-0.031,-0.226,1.015,-1.221,0.916,13.916
-0.049,-0.204,1.008,-6.226,-3.967,9.277
-0.052,-0.182,0.992,-10.132,-2.808,9.766
-0.061,-0.148,1.009,-18.616,0.183,7.751
-0.062,-0.128,0.989,-17.090,-0.366,7.751
-0.069,-0.126,0.970,-13.489,-0.549,5.615
-0.065,-0.125,0.949,-13.245,-1.038,4.517
-0.062,-0.095,0.964,-16.724,-0.854,2.808
-0.040,-0.080,0.974,-14.099,-1.038,4.150
-0.036,-0.099,1.001,-9.949,-2.258,2.808
-0.059,-0.144,1.020,-9.644,-2.136,-0.977
-0.056,-0.145,0.999,-10.071,-0.977,-1.038

-0.139,-0.578,2.839,52.490,-37.781,-43.396
-0.172,-0.597,3.021,60.852,-36.011,-49.255
-0.218,-0.625,3.303,81.482,-31.494,-43.396
-0.323,-0.618,3.516,96.741,-16.785,-26.428
-0.341,-0.596,3.494,109.741,14.832,-9.705
-0.255,-0.545,3.254,111.572,53.467,7.568
-0.178,-0.432,2.842,98.267,86.060,13.367
-0.080,-0.327,2.310,105.225,100.830,-2.014
-0.038,-0.236,1.816,139.038,99.609,-20.508
-0.017,-0.221,1.465,189.514,92.407,-38.269
0.013,-0.250,1.129,244.019,81.360,-55.420
0.031,-0.385,0.747,278.687,72.876,-65.491
0.019,-0.627,0.282,280.273,53.101,-66.284
-0.021,-0.847,-0.084,241.333,40.405,-57.922
-0.041,-0.931,-0.381,161.987,34.607,-35.583
-0.048,-0.866,-0.615,62.561,29.541,-9.338
-0.011,-0.721,-0.694,-16.907,21.057,22.644
0.085,-0.491,-0.651,-62.866,14.282,40.833
0.172,-0.199,-0.449,-70.496,8.423,32.532
0.128,-0.038,-0.076,-55.420,10.010,8.423
0.119,0.073,0.048,-23.682,16.296,-11.230
0.164,0.155,-0.128,21.851,20.508,-28.503
0.206,0.286,-0.342,70.801,19.165,-45.959
0.201,0.268,-0.501,104.736,16.113,-58.594
0.138,0.139,-0.546,116.882,9.644,-65.063
0.057,0.026,-0.492,104.675,3.662,-65.308
-0.049,-0.080,-0.366,79.102,2.136,-53.345
-0.083,-0.094,-0.215,42.114,6.470,-32.654
-0.087,-0.015,-0.064,1.526,9.399,-15.198
-0.075,0.087,0.090,-20.996,6.531,-2.502
-0.052,0.187,0.214,-32.288,5.371,2.869
-0.046,0.257,0.375,-38.757,-1.465,0.488
-0.050,0.254,0.504,-25.452,-13.550,0.977
-0.060,0.205,0.582,-15.259,-20.081,-0.061
-0.096,0.183,0.647,-17.334,-23.682,-3.052
-0.124,0.162,0.733,-26.550,-25.757,-6.775
-0.153,0.167,0.815,-28.137,-24.475,-4.761
-0.117,0.235,0.848,-24.719,-24.902,3.052
-0.214,0.088,0.900,-12.939,-32.654,5.981
-0.164,0.145,0.934,-22.034,-24.658,12.695
-0.209,0.127,0.912,-26.489,-26.306,18.555
-0.182,0.143,0.917,-21.240,-21.790,15.320
-0.202,0.062,0.915,-14.709,-22.949,15.015
-0.201,0.007,0.890,-21.057,-22.156,13.306
-0.205,-0.005,0.848,-32.776,-24.353,9.705
-0.201,-0.021,0.848,-36.011,-27.710,6.897
-0.199,-0.021,0.911,-37.598,-31.250,4.456
-0.184,-0.024,0.965,-38.391,-32.471,4.456
-0.150,-0.027,0.996,-38.208,-28.381,1.953
-0.122,-0.018,1.044,-33.325,-25.574,-0.793
-0.085,-0.042,1.032,-21.301,-25.391,0.488
-0.069,-0.081,0.994,-10.925,-25.085,3.357
-0.062,-0.108,0.981,-10.193,-22.644,4.761
-0.060,-0.109,0.967,-14.404,-20.264,7.019
-0.050,-0.089,0.954,-18.677,-17.883,9.338
-0.042,-0.060,0.940,-20.386,-15.381,11.353
-0.019,-0.030,0.904,-19.836,-14.343,13.184
-0.002,-0.022,0.903,-16.418,-15.259,12.756
-0.024,-0.019,0.939,-10.193,-17.334,11.597
-0.029,-0.023,0.949,-8.362,-18.005,12.756
-0.050,-0.020,0.966,-8.850,-16.663,13.306
-0.051,-0.038,0.996,-6.531,-15.137,15.320
-0.050,-0.017,1.002,-4.883,-15.198,15.381
-0.048,0.003,0.976,-5.188,-13.367,17.761
-0.053,0.016,0.955,-6.409,-9.827,18.921
-0.052,0.011,0.945,-7.568,-5.371,22.705
-0.055,0.006,0.979,-4.272,-3.418,24.658
-0.064,0.010,1.007,-4.456,-1.465,24.658
-0.063,0.007,0.996,-8.118,0.671,25.452
-0.068,-0.014,1.003,-7.874,1.343,25.085
-0.074,-0.028,1.009,-9.277,1.099,25.696
-0.064,-0.028,1.000,-11.902,1.465,26.184
-0.059,-0.031,0.991,-10.864,1.099,25.940
-0.061,-0.042,0.990,-9.827,1.404,24.841
-0.065,-0.052,0.980,-13.306,1.953,21.545
-0.060,-0.025,0.961,-16.602,2.014,16.113
-0.062,0.004,0.937,-17.761,0.977,11.475
-0.057,0.000,0.918,-14.465,-1.099,8.545
-0.062,-0.016,0.928,-8.911,-2.686,5.981
-0.064,-0.036,0.931,-6.348,-4.395,4.456
-0.058,-0.044,0.938,1.465,-5.859,5.981
-0.057,-0.047,0.975,4.089,-6.775,7.629
-0.067,-0.075,1.000,0.977,-5.493,9.766
-0.069,-0.068,1.008,-4.883,-1.953,12.756
-0.066,-0.036,0.974,-14.648,0.916,13.733
-0.057,-0.003,0.936,-19.775,2.197,13.855
-0.047,0.033,0.893,-15.930,0.671,14.221
-0.063,0.012,0.892,-11.475,0.732,13.489
-0.083,-0.023,0.886,-10.376,1.099,13.123
-0.086,-0.021,0.856,-12.024,2.258,12.085
-0.090,-0.021,0.842,-13.733,3.174,12.085
-0.091,-0.036,0.844,-11.841,1.526,13.062
-0.082,-0.046,0.865,-9.155,-0.244,14.526
-0.074,-0.046,0.888,-7.690,-0.610,15.076
-0.070,-0.038,0.896,-8.911,-0.916,15.747
-0.080,-0.052,0.919,-8.850,0.122,14.099
-0.044,-0.018,0.927,-7.141,-0.854,7.324
-0.066,-0.016,0.917,-6.592,-3.967,9.277
-0.065,-0.006,0.896,-11.902,-5.310,2.747
-0.087,-0.023,0.887,-6.836,-4.761,2.625
-0.051,-0.035,0.847,-1.404,-6.653,3.601
-0.051,-0.069,0.848,1.282,-8.606,5.127
-0.080,-0.108,0.885,5.493,-7.446,4.089
-0.049,-0.147,0.915,6.653,-1.892,7.996
-0.059,-0.143,0.903,-1.465,-3.540,9.155
-0.036,-0.116,0.878,1.038,-2.991,13.977
-0.033,-0.093,0.868,-0.122,-4.150,13.672
-0.034,-0.083,0.865,-5.127,-3.723,12.634
-0.030,-0.076,0.894,-4.578,-6.531,11.841
-0.050,-0.066,0.933,-3.540,-10.681,10.315
-0.048,-0.075,0.968,-2.258,-10.071,12.024
-0.045,-0.083,0.998,-5.066,-7.446,9.338
-0.051,-0.085,0.999,-6.226,-6.958,10.986
-0.033,-0.060,0.955,-10.010,-5.432,10.254
-0.019,-0.058,0.908,-13.062,-4.150,9.705
-0.016,-0.057,0.856,-16.479,-2.686,9.399
-0.025,-0.059,0.876,-24.658,-2.808,4.700
-0.035,-0.081,0.859,-23.682,-1.770,8.789
-0.046,-0.101,0.870,-18.555,-2.380,12.512

-0.248,-0.484,2.976,89.355,-60.730,-56.519
-0.353,-0.593,3.198,104.492,-59.387,-57.129
-0.421,-0.749,3.413,123.535,-43.884,-47.058
-0.430,-0.886,3.341,134.888,-20.813,-30.884
-0.426,-0.897,3.198,137.451,14.038,-17.334
-0.315,-0.811,2.917,131.042,46.143,5.554
-0.268,-0.663,2.556,119.812,74.951,15.564
-0.161,-0.492,2.075,111.511,100.037,9.399
-0.057,-0.223,1.525,116.028,109.253,-4.333
0.027,-0.058,1.108,150.208,100.586,-18.311
0.095,0.036,0.818,179.871,80.322,-30.457
0.184,-0.044,0.441,195.312,60.852,-39.734
0.196,-0.230,0.008,195.007,40.283,-45.532
0.096,-0.521,-0.342,176.880,24.231,-34.790
0.104,-0.703,-0.539,132.385,10.254,-16.846
0.130,-0.704,-0.604,73.425,-3.479,1.099
0.159,-0.571,-0.479,3.052,0.793,8.057
0.076,-0.363,-0.055,-37.781,16.724,-8.789
0.123,-0.016,0.070,-23.621,30.273,-13.550
0.269,0.104,-0.173,12.512,37.659,-20.142
0.342,0.230,-0.358,37.964,38.696,-38.025
0.298,0.209,-0.453,59.937,36.865,-51.392
0.222,0.110,-0.494,73.486,33.630,-60.852
0.128,-0.040,-0.477,83.008,27.954,-58.228
0.095,-0.085,-0.456,73.608,23.010,-52.246
0.065,-0.078,-0.409,50.049,19.653,-41.016
0.057,-0.022,-0.320,21.545,19.287,-30.640
0.071,0.075,-0.200,-6.958,15.869,-23.254
0.054,0.154,-0.036,-21.362,11.597,-16.785
0.039,0.153,0.127,-23.804,9.766,-12.085
0.019,0.141,0.260,-20.081,8.179,-8.606
0.013,0.166,0.354,-20.569,8.728,-4.883
-0.022,0.093,0.332,-24.353,5.493,4.028
-0.018,0.100,0.345,-25.757,-0.549,3.296
-0.017,0.103,0.416,-20.996,-6.775,8.301
-0.046,0.081,0.496,-21.362,-11.414,12.268
-0.088,0.017,0.576,-27.161,-13.489,15.259
-0.114,-0.042,0.653,-29.724,-14.648,19.104
-0.108,-0.075,0.647,-32.532,-16.968,23.010
-0.069,-0.052,0.606,-33.386,-23.254,20.691
-0.078,-0.012,0.686,-32.410,-30.334,15.381
-0.120,-0.060,0.799,-32.959,-33.203,13.855
-0.154,-0.081,0.889,-39.246,-34.485,13.428
-0.154,-0.068,0.955,-45.105,-35.034,14.221
-0.167,-0.094,1.021,-40.161,-34.973,14.343
-0.122,-0.077,1.104,-26.733,-32.532,15.259
-0.112,-0.092,1.151,-20.752,-31.860,20.752
-0.101,-0.056,1.178,-24.292,-27.771,20.935
-0.112,-0.053,1.167,-30.884,-22.888,21.057
-0.125,-0.033,1.121,-35.400,-21.057,18.921
-0.118,0.010,1.073,-30.945,-22.461,18.738
-0.086,0.077,1.013,-24.475,-24.109,18.372
-0.074,0.107,0.991,-17.883,-24.841,18.066
-0.066,0.081,0.987,-14.893,-24.353,18.311
-0.102,0.051,1.021,-17.395,-21.973,16.785
-0.124,0.042,1.065,-19.836,-19.287,17.456
-0.133,0.044,1.076,-22.949,-17.456,16.724
-0.144,0.023,1.080,-22.095,-16.052,16.541
-0.141,0.012,1.062,-20.813,-16.174,15.442
-0.125,0.018,1.018,-19.226,-19.409,12.939
-0.100,0.027,1.006,-11.963,-23.010,9.827
-0.087,0.011,1.048,-3.662,-24.353,8.423
-0.073,0.014,1.070,-4.028,-23.499,6.653
-0.077,0.012,1.077,-8.606,-18.982,7.019
-0.077,-0.001,1.067,-12.939,-14.526,8.179
-0.089,-0.022,1.066,-15.137,-12.634,10.620
-0.081,-0.034,1.050,-16.846,-7.202,12.024
-0.082,0.014,1.073,-20.142,-2.930,13.611
-0.054,0.011,1.019,-28.198,-4.639,15.259
-0.044,-0.004,0.997,-26.733,-4.761,13.916
-0.039,-0.030,0.980,-21.912,-7.141,13.123
-0.036,-0.053,0.954,-18.250,-7.751,12.939
-0.041,-0.078,0.922,-15.198,-8.240,12.634
-0.056,-0.091,0.902,-14.099,-8.972,11.353
-0.068,-0.094,0.889,-10.681,-9.827,11.536
-0.068,-0.104,0.868,-8.179,-10.437,13.367
-0.062,-0.110,0.843,-8.850,-10.498,13.672
-0.052,-0.088,0.851,-8.484,-11.841,11.963
-0.044,-0.077,0.870,-6.409,-13.611,11.169
-0.060,-0.096,0.927,-3.052,-15.259,10.742
-0.179,-0.201,0.923,1.526,-14.343,10.559
-0.049,-0.161,1.025,5.554,-11.902,6.592
-0.040,-0.168,1.062,3.784,-11.780,9.399
-0.036,-0.154,1.088,-1.343,-11.719,9.644
-0.036,-0.140,1.066,-6.226,-11.780,10.376
-0.035,-0.135,1.021,-8.362,-10.986,10.010
-0.037,-0.123,0.975,-11.536,-11.169,10.132
-0.040,-0.104,0.940,-15.747,-8.972,10.925
-0.035,-0.072,0.908,-19.897,-8.606,12.085
-0.029,-0.050,0.887,-20.386,-8.240,13.855
-0.021,-0.026,0.875,-17.761,-8.362,14.404
-0.018,-0.019,0.883,-14.343,-9.155,15.015
-0.004,-0.020,0.893,-12.207,-10.925,15.503
0.001,-0.033,0.924,-11.963,-12.329,12.329
0.014,-0.049,0.955,-8.240,-10.132,5.554
-0.026,-0.099,0.998,-5.310,-9.766,9.888
-0.038,-0.105,1.017,-4.883,-6.531,12.817
-0.004,-0.123,0.977,-0.671,-2.014,13.550
-0.007,-0.086,0.958,-5.188,-3.174,13.672
-0.002,-0.089,0.901,-11.414,-0.549,14.771
-0.002,-0.082,0.871,-13.855,0.427,14.343
0.001,-0.059,0.856,-13.062,0.732,15.137
0.005,-0.060,0.845,-12.695,1.709,15.747
-0.008,-0.064,0.839,-6.531,9.460,10.864
-0.017,-0.066,0.898,0.000,19.836,11.841
-0.002,-0.060,0.854,-7.385,10.071,11.536
-0.021,-0.050,0.867,-7.751,7.080,11.597
-0.020,-0.065,0.840,-4.822,4.517,9.705
-0.009,-0.061,0.842,-0.488,5.127,7.202
-0.002,-0.076,0.879,-1.160,3.845,6.287
-0.016,-0.083,0.910,-4.822,4.150,6.226
-0.001,-0.069,0.919,-6.042,3.540,4.944
0.000,-0.063,0.947,-7.751,1.526,3.662
-0.011,-0.068,0.980,-9.949,0.488,3.357
-0.022,-0.075,1.018,-11.292,0.122,3.967
-0.027,-0.086,1.052,-13.611,1.160,5.127
-0.033,-0.097,1.077,-16.541,2.625,4.272
-0.025,-0.103,1.062,-19.958,5.066,4.028
-0.002,-0.093,1.005,-25.146,6.836,3.967

0.051,-0.531,2.966,54.626,-37.048,-31.433
0.051,-0.604,3.122,72.449,-39.978,-33.508
0.024,-0.674,3.491,113.831,-32.593,-41.077
0.005,-0.808,3.656,155.151,-9.460,-33.691
-0.077,-0.807,3.535,165.649,33.936,-32.227
0.000,-0.666,3.006,149.475,92.224,-28.992
0.087,-0.513,2.300,124.878,121.216,-15.015
0.072,-0.255,1.521,125.916,122.681,-23.132
0.084,-0.018,0.941,170.105,114.685,-37.415
0.104,0.077,0.557,216.125,97.656,-52.063
0.097,0.039,0.245,226.501,63.599,-61.829
0.016,-0.182,-0.098,224.304,25.391,-67.688
-0.031,-0.445,-0.391,196.777,3.845,-63.232
-0.107,-0.614,-0.653,123.291,-15.991,-42.603
-0.144,-0.646,-0.747,35.828,-23.254,-10.742
-0.109,-0.560,-0.716,-39.490,-28.076,16.968
-0.089,-0.444,-0.433,-82.336,-21.423,21.423
-0.031,-0.082,0.025,-76.904,0.183,-2.441
0.069,0.179,-0.023,-38.208,3.479,-7.324
0.113,0.251,-0.243,-4.089,13.611,-27.649
0.116,0.239,-0.345,25.879,20.386,-49.377
0.083,0.130,-0.434,49.438,15.137,-63.538
0.056,0.001,-0.450,57.861,9.338,-71.899
0.004,-0.111,-0.397,54.871,3.906,-71.960
-0.013,-0.213,-0.326,41.931,2.563,-60.242
-0.016,-0.209,-0.252,17.700,2.502,-44.983
0.057,-0.087,-0.084,-6.042,5.127,-33.936
0.052,-0.014,0.149,-22.461,14.343,-24.658
0.077,0.040,0.370,-22.888,26.855,-16.174
0.105,0.076,0.432,-9.766,32.104,-7.141
0.107,0.049,0.458,6.287,32.288,-2.441
0.083,0.009,0.499,10.925,32.471,-0.549
0.055,-0.023,0.487,3.357,30.457,3.601
0.033,-0.015,0.470,-3.601,24.109,6.714
0.012,0.046,0.511,-5.249,12.573,12.085
-0.000,0.075,0.538,-11.292,3.967,16.907
-0.034,0.103,0.577,-20.447,-1.709,17.334
-0.072,0.121,0.608,-23.132,-6.897,16.663
-0.095,0.143,0.648,-20.508,-12.695,15.381
-0.124,0.142,0.705,-17.517,-17.822,14.465
-0.140,0.123,0.753,-16.724,-19.592,15.381
-0.130,0.083,0.778,-16.541,-20.447,17.761
-0.122,0.041,0.812,-20.264,-19.409,19.897
-0.117,0.021,0.829,-24.658,-17.639,22.461
-0.121,0.012,0.818,-25.696,-16.418,23.865
-0.108,-0.005,0.812,-24.231,-16.846,23.621
-0.116,-0.045,0.817,-22.461,-19.348,20.752
-0.132,-0.083,0.825,-22.156,-21.057,18.372
-0.129,-0.091,0.821,-19.592,-23.987,18.494
-0.093,-0.127,0.812,-15.076,-27.161,18.738
-0.090,-0.154,0.896,-2.808,-31.982,16.846
-0.093,-0.204,0.957,1.221,-30.884,19.470
-0.064,-0.187,0.937,-7.080,-29.968,21.240
-0.049,-0.134,0.967,-15.076,-30.212,22.400
-0.021,-0.081,1.045,-11.047,-28.931,25.452
-0.003,-0.030,1.150,-12.390,-24.902,25.940
-0.002,-0.020,1.190,-20.447,-19.348,26.245
-0.004,-0.013,1.187,-21.729,-14.465,26.001
-0.005,-0.018,1.155,-23.437,-10.742,24.109
-0.004,-0.001,1.083,-23.560,-9.766,22.034
-0.018,0.004,1.045,-17.273,-9.705,19.592
-0.034,0.007,1.032,-11.230,-10.498,19.165
-0.042,0.003,0.977,-8.423,-10.620,19.348
-0.040,0.024,0.918,-12.024,-11.719,16.907
-0.039,0.067,0.928,-11.658,-15.137,14.160
-0.043,0.044,1.007,1.160,-16.663,15.625
-0.056,0.043,1.147,9.338,-10.681,17.151
-0.051,0.039,1.198,0.305,0.977,19.165
-0.059,0.027,1.164,-5.920,22.217,15.930
-0.018,0.041,1.088,-1.709,23.987,9.399
-0.031,0.017,1.065,2.258,22.705,9.460
-0.039,-0.016,1.042,-4.639,19.165,7.141
-0.049,-0.038,1.038,-11.536,11.414,2.563
-0.070,-0.083,1.059,-12.634,4.578,4.395
-0.081,-0.107,1.065,-14.771,2.319,4.761
-0.068,-0.068,1.055,-15.503,1.160,3.540
-0.049,-0.026,1.028,-16.663,0.977,5.371
-0.037,0.030,1.013,-16.968,0.854,4.089
-0.042,0.071,1.046,-12.573,3.784,3.723
-0.061,0.084,1.033,-10.498,6.226,3.418
-0.082,0.079,0.995,-7.935,9.705,3.784
-0.095,0.072,0.919,-6.348,9.766,3.723
-0.098,0.064,0.853,-4.822,8.423,4.089
-0.102,0.039,0.818,-5.493,5.005,5.249
-0.102,-0.005,0.834,-8.057,0.183,7.263
-0.107,-0.033,0.894,-12.207,-2.014,9.644
-0.083,-0.057,0.906,-14.832,-5.310,11.292
-0.083,-0.033,0.972,-12.939,-5.737,11.230
-0.062,-0.034,0.977,-14.771,-7.446,11.475
-0.053,-0.031,0.964,-14.038,-7.263,9.033
-0.052,-0.045,0.940,-12.695,-7.751,6.348
-0.050,-0.066,0.926,-9.583,-7.324,5.554
-0.054,-0.079,0.924,-7.568,-9.949,5.310
-0.044,-0.084,0.931,-6.958,-10.803,6.226
-0.037,-0.084,0.953,-6.042,-10.071,7.080
-0.028,-0.085,0.953,-9.583,-9.338,7.751
-0.022,-0.082,0.935,-13.062,-8.667,8.118
-0.014,-0.070,0.916,-14.404,-8.545,9.094
-0.009,-0.057,0.913,-14.954,-8.240,10.071
-0.012,-0.054,0.907,-15.320,-7.996,9.766
-0.015,-0.046,0.906,-15.320,-7.996,9.094
-0.021,-0.041,0.890,-13.489,-8.484,8.606
-0.028,-0.044,0.884,-8.423,-9.705,8.362
-0.042,-0.062,0.875,-5.615,-10.437,8.667
-0.054,-0.100,0.856,-4.639,-9.827,9.766
-0.075,-0.088,0.855,-8.423,-6.348,9.644
-0.061,-0.113,0.850,-6.897,-4.395,12.634
-0.068,-0.125,0.800,-8.911,-5.066,16.113
-0.065,-0.096,0.804,-11.963,-4.639,12.512
-0.061,-0.097,0.793,-7.507,-6.958,14.526
-0.017,-0.086,0.859,-2.563,-7.874,3.845
-0.074,-0.122,0.911,3.174,-10.803,10.437
-0.053,-0.149,0.946,6.409,-8.667,14.099
-0.064,-0.189,0.960,4.211,-6.653,15.869
-0.054,-0.193,0.951,-2.014,-5.493,16.418
-0.052,-0.165,0.932,-12.939,-4.578,17.700
-0.046,-0.133,0.902,-22.400,-3.845,18.433
-0.042,-0.085,0.889,-26.123,-3.906,17.639
-0.038,-0.051,0.880,-25.696,-4.944,16.907

-0.208,-0.602,2.830,44.067,-37.476,-52.856
-0.218,-0.579,2.928,39.063,-41.199,-52.063
-0.169,-0.539,3.109,36.011,-41.260,-44.128
-0.090,-0.493,3.293,48.035,-32.898,-38.147
-0.026,-0.484,3.473,64.697,-13.611,-37.292
0.003,-0.532,3.555,84.717,25.452,-32.654
0.016,-0.521,3.348,87.524,73.120,-31.860
0.145,-0.351,2.792,82.825,117.126,-28.687
0.236,-0.156,2.021,94.116,135.376,-23.071
0.308,-0.001,1.292,140.198,131.836,-37.903
0.310,-0.012,0.811,214.722,112.793,-65.857
0.310,-0.235,0.402,259.155,76.660,-73.242
0.229,-0.588,-0.078,267.212,35.828,-72.815
0.142,-0.924,-0.384,224.670,20.569,-67.078
0.063,-1.104,-0.547,124.451,17.883,-42.114
0.011,-1.011,-0.676,9.033,19.043,-15.747
0.009,-0.804,-0.659,-67.505,31.189,4.578
0.074,-0.442,-0.359,-95.825,43.396,-0.671
0.161,0.054,-0.153,-69.336,47.241,-12.024
0.259,0.335,-0.239,-36.926,56.702,-29.297
0.264,0.413,-0.408,8.667,58.228,-51.392
0.231,0.314,-0.535,68.176,49.316,-63.782
0.224,0.178,-0.568,120.911,34.607,-62.927
0.117,-0.029,-0.574,134.033,21.179,-51.025
0.044,-0.166,-0.533,115.784,16.968,-44.678
-0.006,-0.245,-0.448,85.815,19.165,-29.236
-0.025,-0.212,-0.323,51.208,18.066,-11.658
-0.005,-0.112,-0.128,29.419,20.081,3.967
0.006,-0.003,0.038,12.573,18.372,11.841
0.008,0.075,0.147,0.488,17.883,15.564
0.005,0.142,0.226,-5.981,16.602,13.489
-0.006,0.188,0.282,-9.155,12.817,12.085
-0.024,0.211,0.327,-10.315,8.911,9.644
-0.070,0.216,0.394,-10.742,8.057,6.653
-0.106,0.250,0.443,-16.602,8.057,2.686
-0.111,0.275,0.429,-22.034,6.531,4.333
-0.135,0.250,0.408,-23.071,0.793,3.601
-0.165,0.142,0.451,-18.982,-5.981,6.592
-0.201,0.037,0.546,-27.161,-11.230,9.583
-0.202,-0.009,0.633,-40.161,-13.733,14.954
-0.170,-0.017,0.680,-53.467,-14.587,18.250
-0.154,0.002,0.743,-55.420,-18.005,18.311
-0.152,-0.011,0.806,-50.232,-20.203,17.212
-0.154,-0.020,0.855,-45.776,-21.057,13.245
-0.146,-0.047,0.910,-39.795,-21.912,14.099
-0.135,-0.057,0.937,-31.921,-25.757,12.207
-0.121,-0.061,0.972,-29.663,-26.367,10.071
-0.115,-0.080,1.021,-23.926,-26.367,10.620
-0.109,-0.123,1.050,-18.127,-23.682,12.512
-0.113,-0.168,1.079,-14.099,-19.165,15.686
-0.100,-0.184,1.083,-17.578,-13.733,20.325
-0.093,-0.161,1.063,-26.428,-10.315,21.057
-0.104,-0.130,1.058,-27.222,-9.766,21.851
-0.106,-0.104,1.030,-24.963,-8.911,23.193
-0.108,-0.065,0.996,-21.606,-12.329,22.156
-0.107,-0.040,0.968,-16.968,-14.221,23.743
-0.099,-0.010,0.971,-16.846,-14.954,22.156
-0.103,0.025,0.989,-15.625,-14.771,21.729
-0.096,0.031,0.988,-16.968,-14.954,20.081
-0.108,0.024,1.055,-18.677,-14.160,18.799
-0.104,-0.001,1.090,-16.174,-13.672,18.616
-0.113,-0.018,1.114,-12.207,-12.817,18.127
-0.121,-0.026,1.121,-9.155,-11.475,17.334
-0.132,-0.027,1.132,-5.798,-10.254,16.357
-0.129,-0.021,1.092,-2.563,-8.911,16.418
-0.108,-0.003,1.009,-4.333,-7.812,15.137
-0.108,-0.006,0.935,-6.653,-9.216,13.794
-0.112,0.003,0.896,-8.850,-11.902,13.794
-0.080,0.023,0.872,-11.719,-16.663,13.245
-0.079,0.043,0.951,-7.080,-21.912,13.245
-0.082,0.016,1.029,-4.333,-23.376,14.709
-0.089,-0.006,1.095,-10.376,-19.592,12.024
-0.096,-0.007,1.125,-13.611,-14.282,10.986
-0.092,-0.008,1.114,-8.484,-9.399,12.085
-0.081,-0.022,1.082,-4.211,-4.944,14.587
-0.084,-0.015,1.023,-6.287,-0.793,14.648
-0.082,-0.009,0.949,-10.437,1.465,13.855
-0.086,-0.009,0.881,-13.489,0.977,12.329
-0.093,-0.003,0.810,-13.672,-1.465,11.841
-0.087,-0.006,0.759,-9.155,-5.493,12.207
-0.082,-0.016,0.755,-6.287,-10.681,11.292
-0.075,-0.023,0.761,-7.324,-15.991,10.010
-0.070,-0.032,0.794,-9.949,-20.508,8.606
-0.067,-0.012,0.850,-13.794,-23.682,5.493
-0.083,-0.027,0.917,-11.780,-23.987,6.287
-0.073,-0.045,0.964,-8.362,-21.851,8.545
-0.056,-0.033,0.981,-9.460,-18.066,9.949
-0.039,-0.029,0.974,-14.099,-12.695,10.559
-0.028,-0.040,0.959,-17.517,-9.277,10.620
-0.038,-0.055,0.958,-18.982,-7.690,10.437
-0.101,-0.084,0.945,-22.705,-5.493,8.606
-0.024,-0.032,0.960,-21.057,-5.249,7.202
-0.031,-0.017,0.959,-22.034,-7.629,10.010
-0.031,-0.014,0.954,-20.386,-10.254,8.789
-0.032,-0.018,0.939,-20.508,-11.414,7.324
-0.039,-0.026,0.919,-20.691,-11.902,6.531
-0.034,-0.040,0.891,-18.494,-12.451,6.348
-0.058,-0.062,0.902,-16.968,-13.306,6.470
-0.060,-0.074,0.934,-13.184,-12.390,7.690
-0.058,-0.076,0.961,-11.597,-11.841,12.878
-0.053,-0.083,0.987,-14.465,-9.949,14.709
-0.037,-0.065,1.041,-15.259,-5.676,14.221
-0.027,-0.067,1.056,-14.587,-3.723,16.357
-0.026,-0.067,1.060,-14.160,-1.160,16.541
-0.017,-0.079,1.045,-13.123,1.709,17.456
-0.021,-0.058,1.034,-10.254,0.122,16.174
-0.021,-0.082,1.003,-8.789,-0.793,15.137
-0.038,-0.093,0.991,-8.972,-1.953,10.986
-0.065,-0.105,0.975,-8.118,-1.587,10.071
-0.060,-0.132,0.954,-6.042,-1.099,10.681
-0.072,-0.136,0.950,-11.047,0.671,9.460
-0.068,-0.137,0.913,-17.029,3.235,8.972
-0.053,-0.125,0.878,-20.691,4.089,9.521
-0.038,-0.129,0.848,-21.790,3.479,9.705
-0.035,-0.142,0.860,-17.700,2.441,9.949
-0.042,-0.141,0.897,-14.709,3.235,11.169
-0.026,-0.184,0.881,-14.160,4.822,10.864
-0.040,-0.153,0.925,-7.874,2.686,10.254
-0.036,-0.166,0.915,-7.507,3.479,10.620

-0.042,-0.414,3.054,82.703,-49.438,-47.913
-0.098,-0.519,3.249,110.779,-45.776,-56.580
-0.053,-0.613,3.313,140.320,-34.424,-53.650
-0.025,-0.721,3.245,161.499,-26.550,-45.166
-0.026,-0.782,3.133,178.162,-5.066,-44.861
0.034,-0.690,2.900,189.087,28.931,-42.725
0.122,-0.479,2.548,175.781,65.063,-39.917
0.145,-0.288,2.171,149.658,95.642,-40.710
0.215,-0.159,1.810,122.620,116.150,-41.260
0.243,-0.069,1.394,95.154,120.667,-36.560
0.217,-0.031,0.841,84.473,113.770,-39.734
0.167,-0.077,0.327,101.624,101.501,-46.326
0.073,-0.249,-0.043,118.652,87.219,-43.396
-0.001,-0.510,-0.324,117.249,62.866,-26.550
-0.042,-0.707,-0.410,89.172,43.884,-1.038
-0.117,-0.742,-0.397,26.245,33.813,18.555
-0.114,-0.671,-0.221,-34.790,37.231,20.508
-0.092,-0.452,0.004,-59.570,41.077,14.709
0.049,-0.004,0.028,-33.875,39.795,14.648
0.138,0.248,-0.126,0.549,43.457,11.414
0.212,0.396,-0.325,28.381,45.105,-12.146
0.209,0.410,-0.414,46.509,45.105,-42.358
0.133,0.223,-0.463,56.274,42.542,-66.895
0.056,0.046,-0.430,67.749,32.166,-84.167
-0.009,-0.149,-0.345,79.712,21.606,-84.167
-0.028,-0.264,-0.248,65.369,17.822,-74.524
-0.035,-0.253,-0.112,27.893,19.653,-61.951
-0.044,-0.209,-0.040,10.864,20.935,-55.481
-0.028,-0.096,0.049,-9.216,21.606,-41.687
-0.014,0.010,0.105,-19.104,20.203,-31.616
-0.031,0.065,0.129,-23.376,17.700,-23.743
-0.036,0.101,0.141,-25.757,17.456,-17.883
-0.053,0.109,0.122,-19.592,11.597,-8.789
-0.072,0.079,0.132,-9.521,5.615,-1.404
-0.091,0.053,0.161,-6.165,-1.221,3.723
-0.111,0.030,0.213,-6.287,-8.301,8.057
-0.132,0.019,0.293,-10.559,-14.648,12.329
-0.143,0.018,0.337,-18.799,-19.531,15.564
-0.140,0.052,0.340,-25.208,-25.391,14.954
-0.152,0.069,0.387,-27.161,-32.288,10.315
-0.169,0.048,0.474,-22.461,-41.138,7.812
-0.175,0.016,0.596,-19.104,-47.424,6.104
-0.164,-0.014,0.719,-20.996,-49.500,5.188
-0.147,-0.016,0.848,-25.146,-49.316,2.136
-0.112,-0.042,0.952,-25.635,-44.678,-3.540
-0.114,-0.138,1.021,-19.165,-43.274,0.122
-0.092,-0.158,1.076,-18.494,-39.490,3.357
-0.103,-0.160,1.072,-24.109,-33.569,9.338
-0.105,-0.143,1.044,-27.771,-26.672,13.794
-0.105,-0.117,1.007,-32.166,-20.935,18.677
-0.087,-0.076,0.941,-37.659,-19.775,19.714
-0.084,-0.013,0.952,-30.823,-21.667,18.982
-0.099,-0.024,0.986,-26.489,-23.010,17.578
-0.127,-0.050,1.008,-22.522,-24.231,15.625
-0.143,-0.079,1.024,-21.545,-22.217,14.648
-0.145,-0.058,1.032,-15.869,-19.104,12.695
-0.142,-0.072,1.051,-12.268,-21.545,16.602
-0.123,-0.053,1.048,-13.977,-27.283,17.334
-0.105,-0.041,1.071,-14.465,-28.625,18.616
-0.085,-0.015,1.115,-16.174,-29.114,19.287
-0.065,0.016,1.166,-18.250,-26.123,18.738
-0.060,0.020,1.219,-18.127,-19.226,17.151
-0.055,-0.011,1.212,-18.250,-11.169,15.747
-0.053,-0.046,1.189,-17.212,-2.625,14.343
-0.054,-0.103,1.122,-12.756,7.019,14.587
-0.078,-0.111,1.080,-14.587,24.597,14.648
-0.085,-0.138,0.958,-23.743,23.499,15.198
-0.088,-0.115,0.885,-19.470,19.470,15.686
-0.079,-0.102,0.845,-16.418,13.000,14.526
-0.080,-0.100,0.870,-7.324,0.427,14.221
-0.079,-0.122,0.907,-2.991,-10.986,15.076
-0.083,-0.160,0.961,-5.493,-18.250,16.113
-0.093,-0.137,1.047,-9.949,-19.043,17.090
-0.081,-0.101,1.083,-15.137,-14.526,19.409
-0.062,-0.065,1.063,-17.334,-9.216,18.616
-0.062,-0.048,1.036,-14.832,-3.723,17.273
-0.067,-0.050,0.992,-12.207,-0.610,14.893
-0.073,-0.043,0.941,-9.583,0.610,12.268
-0.068,-0.035,0.893,-5.737,-0.122,10.681
-0.070,-0.038,0.867,-2.014,-2.380,9.705
-0.076,-0.066,0.860,0.732,-5.798,9.705
-0.082,-0.098,0.859,2.319,-8.911,10.132
-0.079,-0.113,0.854,-0.488,-12.390,10.315
-0.077,-0.137,0.878,-0.671,-15.808,10.254
-0.073,-0.151,0.924,0.977,-18.311,11.414
-0.065,-0.146,0.964,-0.549,-17.151,12.634
-0.042,-0.111,0.991,-2.869,-14.771,13.733
-0.021,-0.068,0.976,-6.470,-11.597,13.245
-0.026,-0.065,0.958,-7.202,-9.705,13.184
-0.033,-0.063,0.955,-6.165,-8.362,13.306
-0.041,-0.054,0.953,-4.761,-7.629,14.038
-0.042,-0.064,0.938,-1.709,-7.812,14.404
-0.048,-0.069,0.933,-0.183,-7.812,14.099
-0.050,-0.081,0.917,-0.305,-10.376,13.916
-0.048,-0.094,0.908,-1.282,-11.658,13.306
-0.060,-0.114,0.909,-3.052,-13.611,13.855
-0.075,-0.138,0.910,-5.554,-14.465,14.465
-0.086,-0.140,0.908,-11.353,-12.939,14.587
-0.095,-0.120,0.854,-16.357,-12.390,14.648
-0.085,-0.115,0.814,-15.076,-12.390,15.076
-0.095,-0.098,0.779,-17.700,-13.672,15.503
-0.080,-0.079,0.770,-14.465,-15.320,13.977
-0.077,-0.092,0.813,-8.179,-18.127,13.184
-0.070,-0.112,0.861,-3.418,-20.386,13.367
-0.043,-0.124,0.907,2.258,-19.714,15.808
-0.018,-0.107,0.952,5.188,-18.738,16.113
-0.019,-0.165,0.991,6.104,-18.799,16.785
-0.032,-0.122,0.999,7.202,-17.334,20.752
-0.016,-0.205,1.020,4.456,-12.207,26.123
-0.028,-0.152,1.022,-7.141,-12.634,21.118
0.015,-0.108,0.992,-17.029,-8.789,24.658
-0.034,-0.063,0.947,-27.344,-8.118,23.926
-0.015,-0.024,0.915,-26.184,-5.127,20.325
0.001,-0.017,0.866,-21.240,-7.324,20.203
0.016,-0.048,0.862,-13.977,-10.010,16.113
0.006,-0.098,0.931,-4.028,-12.451,13.611
-0.026,-0.159,1.050,0.977,-13.794,13.367
-0.031,-0.193,1.108,3.845,-11.230,18.860
0.000,-0.159,1.083,-0.183,-5.920,21.362

0.138,-0.872,2.559,86.609,24.292,-60.242
0.067,-1.002,2.596,94.788,23.437,-55.664
-0.050,-1.214,2.563,101.074,19.287,-42.297
-0.116,-1.204,2.461,89.966,38.818,-26.550
-0.096,-1.079,2.140,60.730,65.552,-11.597
-0.047,-0.854,1.712,45.532,89.233,-2.930
0.045,-0.562,1.263,57.495,93.323,-1.465
0.119,-0.279,0.904,97.656,81.726,-5.127
0.181,-0.159,0.671,135.620,68.848,-13.855
0.203,-0.134,0.492,161.194,58.411,-29.785
0.169,-0.255,0.322,164.490,63.599,-43.884
0.150,-0.373,0.107,134.705,83.435,-62.195
0.139,-0.436,-0.158,91.553,99.182,-65.735
0.172,-0.369,-0.434,64.209,100.769,-61.829
0.217,-0.266,-0.639,62.500,90.515,-52.612
0.251,-0.204,-0.710,79.712,71.899,-39.734
0.250,-0.145,-0.634,85.510,59.509,-33.325
0.231,-0.084,-0.558,74.951,53.650,-28.320
0.193,-0.116,-0.471,66.895,56.763,-28.259
0.148,-0.065,-0.382,64.453,59.326,-31.433
0.155,-0.018,-0.394,66.040,60.669,-27.527
0.148,0.013,-0.437,67.078,58.899,-23.682
0.122,0.045,-0.431,70.129,50.293,-18.982
0.079,0.084,-0.375,61.279,40.344,-14.893
0.019,0.137,-0.261,45.837,30.579,-9.888
-0.020,0.167,-0.132,34.485,22.522,-2.563
-0.055,0.174,0.009,21.423,16.846,3.662
-0.079,0.203,0.146,9.521,13.855,9.949
-0.083,0.212,0.239,-0.122,12.695,15.442
-0.104,0.231,0.328,-6.592,11.108,17.212
-0.121,0.247,0.375,-6.897,7.568,18.982
-0.124,0.276,0.418,-10.071,3.052,20.569
-0.134,0.290,0.483,-15.076,-3.296,19.836
-0.157,0.280,0.570,-19.775,-10.193,17.578
-0.173,0.260,0.644,-24.902,-15.930,14.526
-0.180,0.238,0.714,-29.114,-21.362,11.841
-0.181,0.190,0.781,-26.123,-25.635,10.620
-0.168,0.132,0.850,-22.766,-30.884,8.362
-0.168,0.051,0.916,-19.653,-32.776,6.348
-0.168,-0.038,0.973,-17.883,-32.349,5.066
-0.160,-0.099,0.979,-22.644,-29.785,3.052
-0.138,-0.137,0.930,-22.217,-27.710,2.319
-0.090,-0.132,0.906,-21.851,-28.931,-1.709
-0.088,-0.146,0.939,-14.343,-30.640,-1.831
-0.105,-0.162,0.972,-8.545,-31.311,-0.549
-0.098,-0.153,0.970,-11.536,-29.480,2.075
-0.093,-0.132,0.962,-13.489,-27.283,4.883
-0.093,-0.102,0.979,-7.812,-26.001,9.338
-0.083,-0.085,0.943,-4.639,-23.865,13.855
-0.087,-0.027,0.947,-0.610,-15.930,13.916
-0.077,-0.008,0.922,-7.019,-16.418,18.250
-0.088,-0.005,0.890,-13.367,-13.611,17.639
-0.086,0.021,0.844,-13.428,-15.503,16.663
-0.081,0.063,0.807,-14.648,-22.461,13.855
-0.072,0.060,0.835,-8.911,-31.616,14.404
-0.068,0.061,0.915,-5.676,-37.964,14.648
-0.057,0.067,0.992,-8.301,-39.490,15.503
-0.038,0.074,1.057,-12.268,-38.391,14.832
-0.030,0.059,1.108,-10.315,-34.485,15.503
-0.010,0.069,1.112,-10.132,-28.442,16.785
0.007,0.081,1.084,-16.418,-20.874,15.808
0.004,0.067,1.074,-16.479,-15.137,16.418
0.001,0.030,1.083,-12.146,-12.207,15.625
-0.017,-0.013,1.084,-11.047,-10.376,15.198
-0.018,-0.032,1.066,-9.644,-9.216,15.198
-0.005,-0.030,1.027,-8.972,-8.911,16.846
0.009,0.006,0.976,-13.367,-9.033,15.442
-0.002,0.053,0.951,-18.188,-9.827,12.634
-0.000,0.099,0.917,-21.606,-11.536,9.094
-0.002,0.137,0.894,-23.132,-13.733,4.150
0.010,0.167,0.889,-19.165,-14.709,0.854
0.026,0.147,0.875,-12.634,-15.869,-2.502
0.000,0.060,0.912,-6.287,-16.602,-7.019
-0.011,-0.042,0.929,5.005,-17.639,-5.371
-0.019,-0.097,0.934,7.874,-15.259,-0.732
-0.031,-0.172,0.900,0.610,-12.085,2.991
-0.045,-0.160,0.875,-2.686,-10.071,8.423
-0.033,-0.115,0.819,-17.761,-11.047,11.780
-0.034,-0.058,0.842,-22.034,-14.954,16.296
-0.015,-0.010,0.872,-26.917,-17.578,19.348
-0.003,0.048,0.896,-32.227,-18.738,18.982
0.019,0.093,0.911,-31.189,-19.226,17.517
0.041,0.094,0.928,-26.550,-19.836,14.648
0.051,0.052,0.972,-18.127,-20.020,12.390
0.062,0.017,1.005,-12.817,-17.517,11.414
0.069,-0.007,1.006,-12.024,-13.794,11.475
0.056,-0.021,1.011,-10.986,-8.972,11.597
0.078,-0.101,0.908,-14.099,-2.197,11.597
0.022,-0.027,1.011,-5.493,14.709,9.460
0.031,-0.089,0.937,-15.137,9.094,16.479
0.018,-0.074,0.925,-18.738,3.113,17.761
0.024,-0.078,0.896,-23.499,1.831,21.179
0.023,-0.057,0.872,-27.832,-0.427,21.423
0.042,-0.046,0.869,-27.954,-2.502,22.522
0.035,-0.052,0.908,-27.405,-6.165,20.630
0.031,-0.060,0.956,-26.367,-9.155,18.921
0.037,-0.075,0.995,-21.606,-10.742,19.470
0.051,-0.083,1.012,-22.217,-10.071,18.616
0.053,-0.078,1.033,-23.132,-7.812,18.066
0.058,-0.090,1.041,-21.973,-5.005,18.616
0.058,-0.093,1.048,-24.902,-0.671,17.822
0.060,-0.085,1.021,-28.198,3.540,17.822
0.058,-0.063,0.966,-31.555,7.385,16.479
0.050,-0.054,0.917,-28.809,7.629,15.320
0.037,-0.057,0.903,-22.278,6.104,14.160
0.030,-0.062,0.876,-20.386,3.540,13.306
0.033,-0.063,0.855,-18.738,-0.244,12.146
0.033,-0.090,0.867,-17.395,-3.784,10.193
0.023,-0.126,0.918,-12.085,-7.324,8.667
0.024,-0.164,0.963,-5.859,-9.277,9.949
0.033,-0.145,0.989,-2.258,-6.836,11.353
0.038,-0.208,0.960,1.343,-5.981,13.367
0.033,-0.174,0.955,-2.258,-3.967,10.193
0.040,-0.177,0.916,-5.005,-2.258,11.414
0.028,-0.167,0.889,-10.132,-0.977,10.681
0.010,-0.161,0.865,-13.672,-0.427,11.475
-0.009,-0.146,0.844,-15.869,0.488,11.414
-0.015,-0.119,0.806,-20.508,0.671,9.888
-0.007,-0.096,0.776,-20.020,-1.648,8.728

-0.058,-0.503,3.068,108.215,0.244,-57.068
-0.102,-0.601,3.096,124.695,8.484,-56.763
-0.178,-0.804,3.047,143.982,31.189,-49.622
-0.215,-0.958,2.852,140.869,60.791,-36.133
-0.229,-1.007,2.547,127.380,90.637,-19.470
-0.183,-0.938,2.151,104.431,118.774,-4.700
-0.093,-0.771,1.679,83.435,134.216,6.348
-0.004,-0.539,1.176,75.134,129.761,12.390
0.085,-0.317,0.716,82.336,108.093,16.724
0.150,-0.176,0.372,103.577,77.148,17.944
0.191,-0.110,0.117,128.296,43.640,14.465
0.101,-0.257,0.009,140.320,26.245,11.108
0.121,-0.366,-0.027,131.897,26.184,-10.681
0.037,-0.516,0.100,87.280,34.241,-25.330
0.002,-0.307,0.141,37.292,52.063,-38.696
0.122,-0.053,-0.171,26.001,66.833,-32.959
0.201,0.107,-0.450,46.875,61.829,-37.964
0.208,0.128,-0.571,94.727,48.950,-50.049
0.164,0.098,-0.592,114.075,31.555,-62.622
0.099,-0.040,-0.573,104.919,27.344,-63.354
0.050,-0.146,-0.514,87.097,28.381,-57.800
0.038,-0.163,-0.470,63.416,28.503,-47.485
0.083,-0.042,-0.434,43.335,22.034,-38.635
0.090,0.078,-0.277,28.625,14.587,-30.640
0.086,0.181,-0.123,13.367,11.475,-27.466
0.067,0.216,0.003,13.977,8.911,-24.475
0.037,0.201,0.064,17.395,8.362,-18.860
0.078,0.220,0.080,10.254,8.057,-12.756
-0.006,0.194,0.076,1.892,5.981,-5.737
0.002,0.207,0.083,-3.723,5.371,-4.578
-0.035,0.231,0.081,-9.766,0.854,-2.625
-0.043,0.222,0.082,-8.667,-5.249,-2.197
-0.055,0.196,0.127,-10.742,-15.137,-3.845
-0.080,0.196,0.182,-15.076,-23.010,-1.648
-0.076,0.152,0.247,-19.409,-30.151,1.221
-0.098,0.136,0.358,-21.851,-38.147,2.563
-0.114,0.115,0.452,-24.109,-44.006,2.869
-0.144,0.072,0.542,-26.672,-47.485,1.526
-0.167,0.022,0.620,-23.499,-49.438,1.465
-0.171,-0.024,0.687,-20.447,-50.598,2.686
-0.156,-0.064,0.761,-19.165,-51.025,2.686
-0.145,-0.089,0.841,-19.714,-50.293,2.563
-0.125,-0.138,0.889,-17.334,-49.072,4.333
-0.105,-0.142,0.938,-16.968,-47.668,5.005
-0.079,-0.142,0.981,-15.137,-46.631,8.545
-0.063,-0.150,1.020,-9.644,-44.250,12.024
-0.047,-0.126,1.105,-9.949,-43.213,15.442
-0.035,-0.116,1.153,-13.977,-41.626,18.555
-0.029,-0.091,1.181,-16.357,-36.194,19.409
-0.029,-0.075,1.171,-18.738,-31.372,20.264
-0.042,-0.051,1.151,-19.775,-27.527,20.325
-0.053,-0.029,1.117,-18.127,-23.193,20.325
-0.077,0.005,1.125,-13.916,-17.822,20.874
-0.065,0.023,1.067,-16.785,-18.616,22.827
-0.060,0.053,1.028,-18.616,-16.174,22.705
-0.027,0.072,0.955,-22.705,-14.526,20.935
-0.011,0.125,0.970,-22.705,-14.404,16.663
-0.007,0.101,1.010,-21.118,-19.348,16.235
-0.018,0.075,1.087,-20.020,-19.958,13.367
-0.022,0.041,1.172,-13.611,-19.226,13.855
-0.020,0.005,1.235,-9.521,-14.771,14.465
-0.010,-0.017,1.227,-9.094,-6.348,15.747
0.010,-0.042,1.135,-15.503,5.310,15.076
-0.003,-0.034,1.091,-18.433,18.494,12.024
-0.007,-0.041,0.998,-18.616,15.442,14.526
-0.013,-0.046,0.932,-15.930,14.709,16.113
-0.021,-0.066,0.879,-11.536,13.672,19.836
-0.020,-0.070,0.867,-12.939,13.733,20.813
-0.023,-0.060,0.845,-13.916,3.418,22.034
-0.014,-0.023,0.871,-9.216,-7.690,21.790
-0.011,-0.015,0.939,-4.272,-15.625,22.705
-0.015,0.004,1.019,-6.836,-19.470,21.118
-0.017,0.055,1.087,-5.981,-18.433,20.447
-0.002,0.093,1.083,-9.521,-13.977,19.714
0.021,0.121,1.037,-11.047,-9.338,18.127
0.024,0.111,0.990,-10.376,-6.409,15.930
0.026,0.100,0.955,-13.245,-4.395,12.634
0.005,0.077,0.959,-15.808,-2.075,13.000
-0.013,0.054,0.949,-18.188,-0.122,14.160
-0.023,0.049,0.926,-20.813,0.671,15.625
-0.030,0.045,0.896,-22.522,0.977,17.273
-0.029,0.026,0.872,-20.081,-0.366,17.700
-0.030,0.002,0.859,-17.700,-1.953,18.799
-0.020,-0.020,0.828,-21.545,-2.808,18.311
-0.001,-0.010,0.783,-25.330,-5.127,16.357
0.008,0.022,0.810,-22.705,-9.338,14.221
0.009,0.029,0.871,-14.893,-14.038,14.465
0.014,0.021,0.915,-10.071,-16.296,13.306
0.003,-0.010,0.971,-7.996,-16.479,11.230
-0.000,-0.049,1.001,-7.385,-14.893,11.414
0.001,-0.064,1.003,-11.108,-11.963,11.475
0.007,-0.077,0.989,-13.367,-8.057,13.000
0.020,-0.085,0.962,-15.381,-5.554,14.893
0.029,-0.087,0.928,-18.127,-4.944,16.541
0.038,-0.080,0.911,-21.729,-5.066,16.541
0.040,-0.063,0.908,-23.865,-6.165,15.930
0.046,-0.054,0.892,-24.109,-8.179,15.991
0.044,-0.054,0.905,-21.973,-10.681,14.099
0.032,-0.064,0.946,-17.517,-12.817,12.756
0.020,-0.067,0.987,-13.977,-11.841,12.085
0.032,-0.050,0.974,-15.198,-10.193,11.353
0.033,-0.037,0.974,-13.550,-9.644,9.949
0.027,-0.045,0.982,-11.414,-8.850,9.521
0.018,-0.050,0.982,-11.780,-7.019,8.728
0.010,-0.046,0.981,-12.939,-3.906,7.629
0.006,-0.039,0.944,-15.503,0.122,7.263
0.011,-0.044,0.880,-19.348,2.380,6.409
-0.002,-0.061,0.863,-21.057,2.747,5.249
-0.005,-0.077,0.850,-20.142,2.258,5.798
-0.006,-0.083,0.850,-21.118,1.160,6.165
-0.004,-0.103,0.859,-20.935,-0.610,7.446
0.001,-0.121,0.876,-19.836,-2.441,7.874
-0.002,-0.144,0.907,-18.738,-4.028,8.301
-0.000,-0.154,0.946,-17.822,-4.944,8.972
0.008,-0.166,0.950,-16.724,-5.676,10.193
0.021,-0.162,0.942,-18.738,-5.981,10.864
0.040,-0.144,0.924,-21.179,-6.409,10.986
0.046,-0.127,0.911,-22.461,-6.897,10.681
0.028,-0.130,0.927,-24.048,-6.897,9.094

-0.132,-0.350,3.108,82.886,6.958,-29.907
-0.161,-0.435,3.100,112.976,26.917,-29.785
-0.142,-0.563,2.997,144.592,42.603,-27.283
-0.128,-0.687,2.821,166.077,53.162,-27.588
-0.117,-0.791,2.653,176.453,64.941,-27.771
-0.113,-0.855,2.388,164.246,75.867,-24.414
-0.053,-0.803,2.023,139.160,82.214,-18.982
0.047,-0.691,1.512,132.751,79.468,-15.869
0.194,-0.494,1.026,130.493,61.340,-31.128
0.267,-0.365,0.692,105.103,42.542,-42.053
0.290,-0.342,0.372,71.472,32.898,-50.537
0.245,-0.428,0.208,38.086,30.457,-45.776
0.246,-0.520,0.017,2.808,21.667,-32.288
0.212,-0.404,-0.058,-26.123,32.776,-22.766
0.216,-0.257,-0.078,-42.419,40.161,-14.160
0.133,-0.095,0.078,-28.503,49.805,-18.494
0.153,0.006,0.068,20.142,60.913,-18.433
0.232,0.137,-0.142,66.650,67.017,-28.564
0.295,0.205,-0.411,95.215,73.669,-43.213
0.271,0.059,-0.630,121.643,64.819,-54.504
0.202,-0.061,-0.616,144.043,47.913,-62.317
0.129,-0.149,-0.547,140.015,35.400,-57.495
0.102,-0.154,-0.529,113.647,28.625,-47.729
0.059,-0.189,-0.535,78.979,26.794,-33.203
0.029,-0.188,-0.541,46.265,20.996,-19.287
0.027,-0.136,-0.519,32.288,18.372,-12.512
0.011,-0.045,-0.437,6.897,11.414,-0.244
-0.045,0.024,-0.289,-7.568,6.836,5.310
-0.045,0.111,-0.139,-2.563,6.836,5.920
-0.061,0.156,-0.043,3.601,5.676,15.747
-0.062,0.199,0.014,9.338,2.930,20.508
-0.064,0.252,0.054,8.545,1.221,23.865
-0.057,0.267,0.078,6.287,-0.854,30.029
-0.043,0.298,0.148,-4.028,-6.714,26.978
-0.067,0.306,0.252,-8.606,-9.094,21.240
-0.076,0.289,0.373,-13.672,-18.860,19.409
-0.096,0.250,0.488,-21.423,-24.841,18.616
-0.099,0.215,0.595,-28.809,-25.269,18.738
-0.103,0.203,0.676,-40.710,-14.038,15.808
-0.081,0.197,0.718,-55.542,-13.428,11.658
-0.094,0.178,0.788,-52.490,-20.569,8.423
-0.099,0.152,0.847,-39.246,-24.536,8.118
-0.095,0.064,0.880,-30.579,-29.785,7.385
-0.102,0.083,0.977,-24.536,-37.598,4.761
-0.090,0.071,1.040,-22.278,-39.795,7.080
-0.082,0.066,1.090,-25.635,-39.856,5.920
-0.078,0.045,1.145,-23.071,-38.086,7.141
-0.131,-0.006,1.175,-19.470,-33.813,7.507
-0.075,0.003,1.182,-20.874,-26.367,8.606
-0.077,0.007,1.125,-30.884,-20.630,9.644
-0.107,-0.004,1.082,-39.063,-15.503,6.958
-0.124,-0.020,1.051,-34.729,-11.536,6.592
-0.127,-0.034,1.008,-34.668,-15.442,9.460
-0.091,-0.028,0.982,-30.762,-20.691,9.033
-0.082,-0.036,1.006,-25.696,-25.513,8.362
-0.153,-0.084,1.038,-22.827,-29.175,4.578
-0.078,-0.053,1.156,-14.160,-29.663,-1.221
-0.061,-0.045,1.210,-8.118,-30.334,1.709
-0.056,-0.025,1.237,-4.150,-25.696,4.089
-0.022,-0.027,1.227,-4.700,-19.348,4.944
-0.037,-0.028,1.168,-14.709,-12.817,5.920
-0.049,-0.054,1.095,-19.653,-7.324,8.545
-0.048,-0.043,1.013,-21.729,-3.357,10.925
-0.039,-0.027,0.937,-21.912,-1.892,13.245
-0.048,-0.033,0.879,-19.775,-3.052,14.709
-0.068,-0.028,0.871,-12.329,-2.319,13.245
-0.068,-0.053,0.883,-10.498,-10.132,15.747
-0.055,-0.054,0.914,-9.094,-15.015,14.648
-0.050,-0.069,0.970,-4.089,-18.005,14.771
-0.024,-0.046,1.019,-1.770,-19.409,13.672
-0.030,-0.042,1.114,1.038,-15.808,13.855
-0.017,-0.038,1.109,-1.099,-9.827,13.489
-0.005,-0.009,1.038,-6.592,-3.174,11.780
0.005,0.017,0.949,-11.414,1.587,11.414
-0.001,0.038,0.863,-16.602,2.930,10.864
-0.011,0.019,0.790,-18.494,2.686,12.512
-0.042,0.025,0.780,-16.357,7.629,12.146
-0.035,-0.004,0.728,-19.836,-3.906,16.724
-0.041,-0.030,0.749,-18.127,-9.766,18.494
-0.027,-0.027,0.839,-15.137,-13.672,21.301
-0.027,-0.111,0.869,-5.981,-14.587,28.625
-0.008,-0.061,0.934,-12.451,-15.442,20.203
-0.002,-0.084,0.954,-4.211,-15.625,22.583
0.013,-0.063,0.965,-3.357,-17.639,17.090
0.016,-0.047,0.999,-2.319,-17.578,13.733
-0.017,-0.056,1.096,1.648,-15.686,12.207
-0.022,-0.040,1.104,-1.404,-12.268,11.841
-0.021,-0.023,1.079,-1.282,-5.798,12.024
-0.032,-0.004,1.044,-1.221,0.793,11.536
-0.015,0.031,0.973,0.671,5.981,12.329
0.004,0.059,0.911,0.610,10.437,10.864
0.016,0.057,0.865,2.625,12.207,9.338
0.002,0.022,0.862,7.446,14.099,6.226
-0.006,-0.030,0.864,11.536,10.620,7.568
-0.019,-0.066,0.864,8.606,7.751,8.667
-0.027,-0.075,0.862,1.221,2.502,9.949
-0.018,-0.074,0.857,-5.127,-2.563,11.536
-0.013,-0.056,0.856,-13.062,-6.409,11.597
-0.005,-0.036,0.859,-18.372,-8.972,12.146
0.011,0.001,0.852,-21.301,-11.292,11.230
0.004,0.006,0.868,-23.315,-12.817,11.169
0.003,-0.000,0.900,-26.062,-13.245,12.390
0.011,0.000,0.964,-27.954,-12.634,13.489
0.020,-0.003,1.053,-24.841,-11.230,14.771
0.031,-0.003,1.113,-22.461,-8.667,14.221
0.046,0.005,1.136,-19.897,-4.089,13.123
0.058,-0.004,1.109,-15.564,-0.366,11.475
0.058,-0.024,1.069,-9.644,1.099,9.888
0.049,-0.050,1.018,-6.165,1.587,8.362
0.031,-0.072,0.973,-3.845,-0.366,8.118
0.034,-0.077,0.937,-2.502,-3.357,9.521
0.037,-0.055,0.890,-4.395,-4.761,8.606
0.018,-0.067,0.907,-7.263,-7.385,8.728
0.014,-0.049,0.908,-11.047,-9.216,7.507
0.000,-0.056,0.949,-9.338,-8.179,5.493
-0.011,-0.087,1.010,3.174,-8.118,5.188
-0.016,-0.059,1.071,15.991,-8.911,5.005
0.022,-0.066,1.029,21.179,-4.395,5.188
0.030,-0.057,0.983,23.315,-4.150,1.221

-0.149,-0.284,3.206,52.612,-55.359,-24.597
-0.185,-0.379,3.402,75.256,-58.655,-22.278
-0.346,-0.529,3.771,124.817,-37.476,-16.846
-0.344,-0.577,3.777,144.043,7.446,-7.080
-0.282,-0.492,3.463,130.798,54.016,-8.057
-0.201,-0.439,2.925,108.093,94.177,-8.728
-0.075,-0.225,2.292,104.431,101.074,-22.644
-0.025,-0.169,1.783,125.061,98.083,-19.104
-0.011,-0.150,1.487,142.822,88.867,-26.489
0.048,-0.174,1.191,145.569,80.200,-35.583
0.085,-0.276,0.914,123.718,69.031,-48.645
0.104,-0.392,0.649,85.876,65.369,-54.443
0.114,-0.580,0.307,36.377,63.354,-43.762
0.161,-0.580,-0.011,3.723,59.570,-32.227
0.233,-0.521,-0.163,-11.108,56.458,-23.193
0.235,-0.453,-0.244,-27.893,51.819,-17.456
0.179,-0.479,-0.145,-29.236,52.429,-18.555
0.099,-0.406,0.200,-12.451,64.697,-29.419
0.134,-0.278,0.149,3.662,78.003,-23.743
0.233,-0.117,-0.146,12.817,89.844,-26.611
0.270,-0.007,-0.305,33.875,85.510,-28.076
0.249,0.037,-0.371,64.453,69.885,-19.470
0.200,-0.018,-0.430,67.627,55.420,-15.564
0.135,-0.032,-0.483,62.866,44.067,-13.428
0.103,-0.022,-0.502,64.148,37.720,-2.563
0.072,0.008,-0.489,57.861,27.649,2.441
0.039,0.041,-0.445,49.988,15.991,7.751
0.021,0.092,-0.370,45.410,2.563,14.893
0.020,0.117,-0.322,39.124,-11.963,21.240
-0.015,0.150,-0.191,25.452,-21.057,22.095
-0.059,0.165,-0.013,18.433,-29.114,20.508
-0.095,0.204,0.130,16.418,-33.264,15.015
-0.110,0.201,0.142,20.142,-34.302,12.878
-0.113,0.196,0.134,28.931,-34.973,10.986
-0.108,0.187,0.133,27.100,-37.170,11.658
-0.127,0.187,0.184,11.597,-36.438,10.986
-0.105,0.211,0.210,-3.845,-38.574,12.756
-0.118,0.249,0.291,-18.921,-42.236,12.207
-0.143,0.258,0.372,-28.198,-47.119,11.230
-0.157,0.252,0.463,-36.316,-52.185,8.728
-0.186,0.245,0.570,-40.161,-55.786,6.287
-0.187,0.212,0.664,-33.752,-57.495,4.639
-0.183,0.177,0.749,-25.940,-57.678,1.160
-0.178,0.142,0.824,-20.325,-57.190,0.549
-0.169,-0.007,0.793,-14.954,-55.237,6.714
-0.149,-0.063,0.762,-24.109,-48.096,5.493
-0.127,-0.078,0.694,-37.903,-46.509,8.118
-0.112,-0.027,0.719,-42.175,-47.302,11.719
-0.104,0.024,0.791,-40.527,-50.598,14.038
-0.099,0.057,0.884,-40.405,-51.636,15.503
-0.085,0.066,0.962,-36.804,-50.903,15.747
-0.096,0.054,1.061,-28.992,-49.561,16.602
-0.090,0.036,1.122,-24.597,-45.837,17.822
-0.101,0.064,1.144,-20.386,-40.344,21.790
-0.114,-0.042,1.085,-18.005,-33.264,27.283
-0.133,-0.035,1.068,-28.137,-25.391,24.231
-0.121,-0.040,0.990,-37.537,-21.423,24.963
-0.076,-0.009,0.898,-42.297,-22.217,23.560
-0.026,0.017,0.855,-43.579,-26.489,20.691
-0.008,0.025,0.955,-34.424,-36.865,17.151
-0.001,0.011,1.075,-29.541,-40.771,16.174
-0.008,-0.011,1.208,-28.442,-38.879,16.296
-0.015,-0.038,1.269,-30.823,-31.616,19.043
-0.027,-0.027,1.271,-32.227,-21.484,21.545
-0.015,-0.004,1.195,-31.250,-11.902,25.146
-0.009,0.028,1.110,-29.663,-4.456,25.085
-0.022,0.036,1.034,-29.419,-0.549,23.682
-0.028,0.031,0.950,-30.884,4.028,22.095
-0.036,0.033,0.887,-31.250,4.211,21.057
-0.017,0.036,0.803,-34.119,3.662,20.447
0.014,0.042,0.787,-28.198,-7.446,17.090
0.022,-0.015,0.889,-16.418,-17.151,15.259
0.023,-0.086,1.021,-9.827,-22.461,14.587
0.026,-0.120,1.112,-10.498,-19.958,15.869
0.047,-0.069,1.134,-13.123,-13.428,17.151
0.035,-0.140,1.121,-5.188,-11.169,24.109
0.031,-0.025,1.135,-9.949,-4.883,23.193
0.036,-0.007,1.077,-19.165,2.075,23.437
0.015,0.032,1.015,-32.104,6.348,19.775
-0.008,0.035,0.920,-37.903,8.850,19.409
-0.032,0.029,0.853,-39.795,7.324,20.447
-0.044,0.043,0.798,-36.499,2.625,21.912
-0.041,0.053,0.778,-35.278,-2.380,21.973
-0.024,0.044,0.793,-31.616,-8.972,21.240
-0.007,0.018,0.873,-24.841,-16.113,20.203
0.005,-0.011,0.979,-16.663,-20.447,18.555
0.009,-0.035,1.051,-8.179,-19.226,17.822
-0.016,-0.093,1.074,0.183,-10.071,19.714
0.028,-0.047,1.048,0.488,-9.399,12.573
0.011,-0.080,1.009,3.479,-5.127,15.442
-0.008,-0.049,1.028,-2.075,-2.808,4.150
-0.023,-0.043,0.992,-2.991,-1.587,2.869
-0.028,-0.036,0.944,-2.441,-0.061,0.671
-0.021,-0.027,0.892,1.953,-2.258,-0.244
0.003,-0.047,0.859,9.521,-6.348,-0.549
0.011,-0.076,0.879,13.550,-12.146,-1.709
-0.007,-0.142,0.941,12.390,-15.747,-1.099
-0.023,-0.200,0.993,5.981,-15.076,0.854
-0.061,-0.210,1.024,-1.160,-15.320,7.812
-0.047,-0.208,1.019,-15.991,-9.033,7.141
-0.025,-0.162,0.965,-36.743,-2.686,9.460
-0.017,-0.122,0.937,-45.532,1.404,11.047
-0.002,-0.079,0.919,-45.837,1.892,12.207
0.006,-0.063,0.917,-41.321,0.671,12.268
0.012,-0.065,0.938,-34.729,-2.930,11.658
0.013,-0.068,0.986,-25.940,-5.615,13.000
0.033,-0.109,1.002,-20.691,-6.958,13.977
0.038,-0.106,1.031,-16.541,-10.315,10.742
0.020,-0.129,1.069,-12.695,-10.742,10.925
0.011,-0.144,1.085,-8.911,-11.108,9.033
-0.023,-0.147,1.044,-10.620,-9.827,4.211
-0.000,-0.126,1.006,-10.986,-7.507,2.808
-0.015,-0.139,0.967,-12.512,-7.690,4.883
-0.003,-0.134,0.908,-15.381,-5.127,6.836
0.003,-0.131,0.887,-22.827,-2.136,7.080
0.021,-0.133,0.865,-28.076,-1.526,9.644
0.051,-0.134,0.876,-29.602,-3.906,10.803
0.043,-0.157,0.962,-28.748,-7.446,10.376
0.031,-0.184,1.033,-26.306,-9.155,11.353

-0.013,-0.595,2.917,59.326,-51.880,-29.907
0.023,-0.500,3.072,84.045,-43.701,-40.649
0.070,-0.450,3.081,117.676,-32.593,-31.189
0.080,-0.419,2.995,132.874,-12.207,-28.442
0.089,-0.394,2.880,135.986,18.066,-34.790
0.063,-0.444,2.680,139.038,45.776,-34.851
0.028,-0.481,2.305,140.259,68.359,-30.640
0.033,-0.474,1.833,146.484,81.848,-24.902
0.050,-0.479,1.575,148.621,82.886,-21.912
0.073,-0.490,1.088,146.790,76.538,-20.203
0.109,-0.430,0.723,131.897,63.293,-25.818
0.119,-0.456,0.411,118.469,36.926,-16.174
0.128,-0.503,0.258,112.549,17.029,-6.531
0.087,-0.538,0.441,91.553,21.667,-16.602
0.042,-0.325,0.726,57.800,36.987,-36.255
0.099,-0.159,0.628,54.565,60.730,-33.142
0.206,-0.147,0.287,76.050,73.547,-44.067
0.241,-0.142,0.039,99.182,79.834,-56.580
0.243,-0.211,-0.196,102.417,80.566,-62.500
0.194,-0.312,-0.393,86.182,75.256,-66.467
0.104,-0.392,-0.439,78.003,67.627,-57.556
0.071,-0.371,-0.454,59.448,66.284,-47.913
0.066,-0.294,-0.474,33.264,67.810,-34.912
0.090,-0.122,-0.482,7.812,59.692,-23.071
0.119,0.041,-0.483,-12.695,49.622,-16.968
0.108,0.152,-0.359,-17.334,38.635,-16.235
0.078,0.249,-0.197,-2.502,27.283,-16.968
0.042,0.249,-0.177,7.935,22.156,-15.869
0.021,0.250,-0.214,14.282,18.982,-20.447
0.000,0.237,-0.209,26.062,12.695,-23.376
-0.039,0.162,-0.161,31.860,7.812,-20.874
-0.059,0.103,-0.129,22.278,7.446,-16.968
-0.082,0.049,-0.083,5.981,6.958,-11.414
-0.083,0.017,-0.026,-7.812,5.859,-3.235
-0.079,0.030,0.048,-21.301,3.479,5.005
-0.069,0.085,0.117,-32.715,-0.366,12.146
-0.076,0.134,0.188,-38.696,-4.883,18.188
-0.093,0.188,0.269,-45.227,-8.667,21.423
-0.088,0.220,0.311,-49.622,-10.742,29.846
-0.083,0.270,0.366,-49.255,-17.273,25.269
-0.085,0.270,0.420,-42.297,-22.034,22.827
-0.097,0.228,0.472,-36.377,-28.503,18.616
-0.107,0.176,0.530,-35.278,-34.668,15.015
-0.119,0.119,0.640,-37.598,-39.612,12.390
-0.134,0.045,0.771,-39.368,-42.053,11.780
-0.167,-0.059,0.911,-43.335,-42.053,12.024
-0.149,-0.101,1.036,-47.607,-37.170,17.456
-0.145,-0.134,1.010,-54.932,-31.982,21.240
-0.122,-0.097,1.050,-55.420,-26.978,21.179
-0.099,-0.056,1.042,-54.993,-25.024,20.752
-0.101,-0.018,1.046,-51.575,-24.475,19.897
-0.106,-0.032,1.047,-51.697,-24.353,25.391
-0.104,-0.013,1.051,-51.758,-24.719,20.569
-0.108,-0.013,1.046,-43.518,-28.259,19.775
-0.115,-0.064,1.048,-37.292,-28.931,22.522
-0.106,-0.089,1.023,-39.246,-28.503,24.841
-0.073,-0.169,0.966,-36.621,-28.137,32.043
-0.069,-0.179,1.011,-46.143,-24.292,29.480
-0.055,-0.168,1.010,-58.289,-23.499,30.090
-0.050,-0.127,1.005,-60.547,-22.278,27.222
-0.025,-0.103,0.981,-57.800,-25.085,18.799
-0.038,-0.033,1.021,-44.556,-31.311,15.503
-0.053,-0.046,1.051,-37.659,-30.396,15.442
-0.072,-0.073,1.061,-38.208,-27.283,16.235
-0.039,-0.120,1.023,-42.419,-20.996,20.935
-0.034,-0.148,1.043,-46.143,-14.282,29.114
-0.001,-0.217,1.033,-51.636,-9.827,34.668
-0.045,-0.225,1.167,-52.002,-5.371,37.415
-0.087,-0.226,1.245,-45.715,0.488,39.673
-0.058,-0.312,1.174,-45.044,6.958,40.222
-0.004,-0.180,1.145,-31.067,18.311,-0.061
-0.050,-0.162,1.075,-34.424,23.987,15.381
-0.050,-0.123,0.981,-34.729,13.611,18.066
-0.046,-0.129,0.940,-23.987,8.484,17.700
-0.066,-0.124,0.928,-16.113,6.409,16.907
-0.080,-0.091,0.896,-12.268,7.141,18.372
-0.085,-0.083,0.840,-11.902,11.047,19.348
-0.075,-0.082,0.817,-4.333,15.442,16.907
-0.056,-0.085,0.838,0.244,11.902,18.738
-0.032,-0.107,0.849,-0.122,8.423,22.583
-0.022,-0.175,0.863,5.432,0.854,20.264
-0.032,-0.185,0.966,6.470,-5.737,14.282
-0.042,-0.178,1.061,7.690,-7.690,14.221
-0.060,-0.217,1.092,7.141,-5.737,11.230
-0.071,-0.219,1.108,-1.770,1.160,7.812
-0.070,-0.206,1.088,-9.888,7.812,7.019
-0.062,-0.184,1.017,-17.151,15.808,8.484
-0.053,-0.167,0.921,-22.278,21.912,10.986
-0.043,-0.144,0.866,-22.522,23.743,13.000
-0.029,-0.134,0.849,-18.494,21.729,15.198
-0.027,-0.125,0.904,-12.451,19.226,19.104
-0.020,-0.120,1.000,-7.446,18.188,21.606
-0.038,-0.173,1.035,-11.475,22.705,27.527
-0.025,-0.185,1.064,-3.540,23.254,24.963
-0.061,-0.204,1.117,10.742,17.334,16.785
-0.067,-0.197,1.132,16.052,18.860,11.658
-0.066,-0.210,1.067,8.606,22.400,5.981
-0.091,-0.240,1.005,0.000,26.611,2.075
-0.120,-0.250,0.941,-7.446,31.860,3.418
-0.125,-0.216,0.868,-16.235,34.668,7.568
-0.116,-0.213,0.765,-23.743,33.142,17.151
-0.093,-0.182,0.737,-30.579,26.306,13.184
-0.114,-0.190,0.814,-32.288,10.864,11.780
-0.137,-0.232,0.943,-22.705,3.418,9.705
-0.179,-0.257,1.099,-10.986,1.465,10.376
-0.166,-0.227,1.170,-3.845,5.554,13.916
-0.156,-0.213,1.172,-1.953,11.719,14.038
-0.129,-0.175,1.082,-5.249,18.005,12.512
-0.124,-0.141,1.014,-9.521,20.142,4.944
-0.133,-0.117,0.979,-13.794,13.428,0.366
-0.148,-0.134,0.886,-16.296,8.850,-4.517
-0.173,-0.124,0.899,-13.245,-0.793,-9.766
-0.209,-0.164,0.887,-8.972,-2.258,-7.385
-0.195,-0.191,0.883,-3.601,-2.136,-10.803
-0.192,-0.199,0.923,1.648,-3.540,-11.536
-0.185,-0.215,0.967,6.897,-4.761,-8.118
-0.171,-0.234,0.990,8.484,-4.028,-4.333
-0.152,-0.237,0.996,4.822,0.671,-0.793
-0.150,-0.219,0.996,-0.732,6.531,1.282

-0.163,-0.253,3.211,67.261,-70.251,-58.655
-0.299,-0.477,3.614,117.493,-59.326,-44.189
-0.317,-0.675,3.697,144.775,-34.180,-27.771
-0.278,-0.819,3.470,129.700,0.854,-21.790
-0.198,-0.823,3.070,97.290,31.921,-26.489
-0.081,-0.782,2.604,65.247,58.289,-24.475
-0.011,-0.697,2.175,56.885,70.801,-27.466
0.111,-0.563,1.790,62.317,68.359,-24.170
0.048,-0.488,1.522,66.650,63.232,-22.095
0.045,-0.417,1.308,72.693,63.965,-15.564
0.065,-0.392,1.036,68.726,66.040,-14.221
0.031,-0.388,0.809,69.641,63.354,-16.602
0.037,-0.396,0.549,69.519,60.608,-20.447
-0.010,-0.430,0.263,72.327,49.683,-19.714
-0.031,-0.443,0.057,83.801,33.081,-17.273
-0.048,-0.438,-0.104,84.351,14.648,-14.465
-0.063,-0.432,-0.159,79.407,8.240,-14.221
-0.099,-0.391,-0.201,69.275,1.404,-14.954
-0.091,-0.311,-0.250,65.247,-3.784,-16.846
-0.059,-0.207,-0.263,70.862,-8.423,-20.020
-0.049,-0.135,-0.252,70.190,-7.141,-25.085
-0.052,-0.089,-0.236,67.932,-0.916,-32.776
-0.058,-0.053,-0.263,67.810,4.822,-47.424
-0.044,-0.038,-0.325,73.120,7.568,-55.786
-0.012,-0.023,-0.395,73.975,4.517,-68.359
-0.031,-0.020,-0.367,77.881,3.784,-67.871
-0.056,-0.121,-0.315,78.857,0.366,-62.927
-0.103,-0.205,-0.203,82.520,-4.517,-55.054
-0.126,-0.260,-0.092,83.862,-7.935,-41.992
-0.123,-0.248,0.035,73.914,-6.531,-29.114
-0.086,-0.145,0.102,56.396,-3.723,-17.517
-0.052,-0.048,0.123,38.208,1.099,-7.446
-0.013,0.036,0.125,25.574,4.211,-1.343
-0.005,0.088,0.156,21.729,5.798,3.601
-0.000,0.091,0.181,20.020,6.714,10.010
0.006,0.085,0.207,15.930,6.714,17.761
0.017,0.111,0.242,6.470,7.874,26.062
0.014,0.133,0.290,-5.737,9.888,32.837
0.008,0.167,0.314,-19.958,12.146,35.034
-0.011,0.244,0.362,-29.907,13.611,37.292
-0.024,0.239,0.321,-27.893,11.963,41.504
-0.026,0.224,0.280,-25.085,8.118,39.917
-0.065,0.195,0.269,-20.508,1.404,40.833
-0.053,0.187,0.265,-19.958,-4.761,33.447
-0.047,0.166,0.341,-16.113,-13.184,26.367
-0.051,0.106,0.459,-13.916,-22.339,23.376
-0.014,0.105,0.589,-13.000,-30.640,26.001
-0.010,0.079,0.799,-14.099,-33.691,28.259
-0.016,0.036,0.943,-27.649,-27.710,29.053
-0.034,0.018,0.995,-47.546,-17.639,27.283
-0.042,0.022,0.940,-59.143,-10.803,25.879
-0.059,0.017,0.882,-57.434,-9.705,22.827
-0.091,0.041,0.851,-52.979,-10.498,24.841
-0.078,0.044,0.774,-46.326,-13.794,28.320
-0.070,0.086,0.793,-39.368,-20.691,25.146
-0.059,0.103,0.853,-35.339,-28.198,20.203
-0.053,0.101,0.957,-34.119,-36.560,13.794
-0.075,0.083,1.152,-25.513,-41.687,11.841
-0.087,0.038,1.296,-18.921,-39.368,14.954
-0.123,0.012,1.402,-21.851,-35.217,15.747
-0.138,-0.004,1.371,-31.555,-26.001,14.648
-0.141,0.018,1.241,-51.270,-18.066,10.010
-0.130,0.112,1.054,-62.378,-15.808,7.446
-0.096,0.151,0.895,-55.481,-10.742,2.502
-0.093,0.163,0.966,-41.870,-14.160,0.610
-0.082,0.154,0.977,-37.109,-24.902,4.517
-0.057,0.041,1.021,-21.545,-25.635,9.338
-0.066,-0.032,1.141,-11.353,-29.846,7.385
-0.069,-0.095,1.220,-7.141,-29.175,7.568
-0.071,-0.151,1.243,-10.742,-26.184,8.179
-0.073,-0.169,1.273,-16.418,-22.644,7.935
-0.056,-0.137,1.259,-20.508,-19.714,11.108
-0.043,-0.095,1.218,-27.527,-14.465,12.817
-0.042,-0.053,1.140,-39.063,-6.836,13.733
-0.031,0.021,1.017,-47.913,-0.793,12.451
-0.011,0.071,0.852,-48.767,0.488,11.414
-0.008,0.067,0.737,-37.231,-4.883,10.376
-0.027,0.025,0.758,-15.869,-9.033,8.118
-0.023,-0.040,0.824,-11.841,-21.912,11.169
-0.042,-0.129,0.915,-14.038,-24.475,8.911
-0.084,-0.222,1.033,-15.991,-21.912,10.681
-0.146,-0.312,1.059,-14.038,-15.930,18.677
-0.032,-0.275,1.097,-14.343,-7.935,19.897
-0.015,-0.246,1.044,-25.330,-5.859,21.790
-0.037,-0.217,1.030,-35.583,-1.892,19.104
-0.035,-0.166,0.972,-40.344,-2.991,18.494
-0.023,-0.124,0.921,-38.452,-6.409,17.212
-0.011,-0.105,0.916,-28.748,-12.146,15.808
-0.023,-0.168,0.889,-17.273,-18.250,14.526
0.009,-0.095,1.066,-7.019,-21.423,10.315
0.009,-0.139,1.113,-7.751,-19.958,14.709
-0.001,-0.134,1.189,-4.883,-15.503,11.963
0.000,-0.144,1.214,3.052,-6.409,18.372
0.010,-0.152,1.164,4.211,-1.587,15.015
-0.015,-0.132,1.108,2.136,3.967,11.719
0.008,-0.115,0.997,5.737,6.042,14.648
0.004,-0.112,0.911,0.122,5.920,14.282
-0.001,-0.110,0.847,-12.390,5.371,13.489
0.025,-0.086,0.818,-19.348,2.991,13.611
0.034,-0.079,0.889,-17.761,-4.700,12.451
0.027,-0.088,0.981,-13.611,-9.705,11.841
0.031,-0.091,1.038,-11.963,-11.414,10.620
0.032,-0.102,1.086,-6.287,-11.719,9.155
0.023,-0.117,1.104,-0.732,-10.315,8.545
0.013,-0.137,1.076,-0.732,-6.287,7.568
0.005,-0.154,1.018,-4.883,-2.136,7.263
-0.010,-0.172,0.965,-4.883,1.709,10.132
-0.021,-0.158,0.935,-4.272,2.930,11.292
-0.018,-0.137,0.893,-3.845,5.371,13.977
-0.023,-0.122,0.843,-8.179,7.690,13.794
-0.036,-0.131,0.781,-13.916,7.812,13.000
-0.020,-0.134,0.750,-14.893,4.700,12.573
-0.011,-0.143,0.789,-14.160,-0.244,11.902
-0.009,-0.161,0.853,-13.000,-3.662,11.658
-0.005,-0.180,0.919,-14.526,-5.371,11.536
-0.001,-0.185,0.955,-18.005,-4.639,11.108
0.011,-0.163,0.957,-19.226,-3.174,11.353
0.020,-0.168,0.938,-18.127,-1.160,13.123
0.021,-0.149,0.934,-19.165,0.549,11.169

0.004,-0.194,3.509,115.601,-71.106,-71.045
0.004,-0.401,3.732,163.147,-60.364,-60.486
0.031,-0.648,3.762,180.725,-33.203,-44.189
0.043,-0.875,3.711,163.208,9.827,-34.119
0.105,-0.906,3.438,124.756,51.331,-30.701
0.167,-0.819,3.024,94.543,92.590,-29.419
0.262,-0.720,2.796,84.351,107.666,-28.015
0.296,-0.655,2.130,68.298,122.192,-20.386
0.278,-0.525,1.506,90.637,121.765,-16.113
0.268,-0.480,1.070,125.000,114.014,-18.005
0.245,-0.531,0.667,125.549,99.854,-23.315
0.234,-0.615,0.229,120.361,84.717,-28.564
0.182,-0.752,-0.176,114.075,62.500,-16.235
0.059,-0.816,-0.456,98.083,39.124,-7.202
0.050,-0.758,-0.574,78.491,22.217,8.301
0.070,-0.501,-0.530,49.072,12.390,14.526
0.076,-0.250,-0.376,12.390,15.076,2.869
-0.020,0.009,-0.053,1.587,25.879,-21.729
-0.002,0.166,-0.088,36.194,31.128,-26.550
0.044,0.217,-0.297,68.115,35.400,-33.691
0.066,0.252,-0.444,101.257,30.212,-43.823
0.048,0.196,-0.518,123.413,24.109,-52.551
-0.017,0.048,-0.505,119.751,19.714,-60.425
-0.071,-0.077,-0.452,101.379,18.372,-59.387
-0.091,-0.126,-0.403,73.120,18.005,-51.636
-0.068,-0.078,-0.325,46.875,17.517,-41.260
-0.058,-0.011,-0.245,25.024,13.184,-30.762
-0.051,0.052,-0.157,9.644,9.094,-26.794
-0.067,0.070,-0.062,-1.282,6.897,-25.085
-0.065,0.085,0.028,-3.601,4.150,-21.729
-0.057,0.095,0.070,-9.277,5.310,-22.522
-0.047,0.091,0.151,-9.460,5.127,-15.625
-0.058,0.070,0.223,-10.010,3.601,-8.972
-0.055,0.050,0.259,-7.996,4.089,1.343
-0.045,0.069,0.317,-9.949,5.737,10.132
-0.022,0.122,0.352,-17.212,6.470,21.484
-0.021,0.190,0.385,-28.320,5.615,30.518
-0.012,0.264,0.414,-35.583,4.456,31.128
-0.029,0.290,0.464,-36.255,0.610,28.381
-0.047,0.286,0.521,-34.485,-3.845,24.597
-0.066,0.285,0.602,-27.588,-8.606,27.649
-0.083,0.224,0.666,-20.081,-12.329,26.978
-0.111,0.146,0.723,-20.508,-12.878,22.705
-0.114,0.055,0.729,-20.447,-14.832,19.653
-0.127,0.016,0.761,-20.203,-15.442,16.541
-0.127,-0.013,0.781,-18.066,-17.090,16.113
-0.098,0.017,0.774,-19.653,-19.592,14.709
-0.064,0.042,0.783,-24.231,-23.621,13.062
-0.062,0.051,0.824,-29.114,-25.513,13.306
-0.066,0.062,0.928,-32.593,-26.306,13.733
-0.069,0.067,0.986,-27.222,-25.330,17.944
-0.073,0.042,1.022,-28.137,-19.653,17.334
-0.086,0.055,1.059,-28.564,-13.550,13.489
-0.091,0.017,1.058,-20.508,-13.184,13.184
-0.122,-0.003,1.049,-18.127,-13.184,10.132
-0.116,-0.056,1.016,-15.442,-11.475,14.465
-0.111,-0.083,1.003,-11.230,-9.827,19.348
-0.099,-0.080,0.930,-12.756,-10.010,22.949
-0.072,-0.061,0.851,-17.700,-7.446,22.400
-0.077,-0.036,0.819,-21.729,-4.639,20.935
-0.239,-0.195,0.791,-25.940,1.709,32.532
0.053,0.050,0.780,-45.654,-1.526,26.062
-0.041,0.083,0.956,-39.063,-10.315,13.611
-0.020,0.007,1.082,-14.709,-16.235,17.212
-0.062,-0.036,1.186,-10.315,-23.804,19.409
-0.058,-0.066,1.231,-22.522,-17.944,21.729
-0.005,-0.058,1.202,-22.095,-15.991,23.682
-0.003,0.056,1.158,-21.301,-16.052,22.156
-0.021,0.060,1.035,-18.738,-14.648,22.217
-0.068,0.048,0.931,-24.231,-7.324,19.958
-0.050,0.131,0.809,-35.828,-6.470,13.184
-0.043,0.181,0.793,-39.063,-10.193,7.202
-0.050,0.147,0.900,-30.212,-17.212,4.517
-0.027,0.155,1.016,-27.954,-21.851,-1.282
-0.006,0.102,1.094,-25.330,-22.766,-3.113
-0.021,0.009,1.183,-18.799,-23.682,-4.578
-0.033,-0.107,1.200,-19.348,-16.174,-1.221
-0.032,-0.082,1.138,-27.588,-9.766,4.028
0.030,-0.012,0.985,-28.625,-6.165,11.475
-0.007,-0.070,0.893,-24.719,-4.395,12.634
-0.043,-0.152,0.813,-30.640,-5.188,8.911
-0.052,-0.110,0.829,-33.875,-9.583,10.254
-0.072,-0.135,0.890,-20.325,-13.794,17.883
-0.114,-0.212,0.941,-15.076,-15.442,18.250
-0.038,-0.200,0.914,-15.076,-12.756,21.118
-0.000,-0.200,0.859,-14.160,-14.771,17.090
0.048,-0.098,0.949,-5.371,-17.822,12.756
0.022,-0.158,1.016,-10.254,-16.052,13.733
0.002,-0.167,1.052,-15.320,-13.000,9.705
-0.011,-0.167,1.064,-7.324,-13.733,9.460
0.000,-0.150,1.043,-4.639,-13.000,8.850
-0.020,-0.114,1.019,-3.845,-13.123,5.249
-0.020,-0.098,1.001,-2.380,-12.146,2.502
-0.054,-0.093,0.962,-1.099,-13.916,-0.061
-0.024,-0.082,0.897,0.977,-13.916,2.991
-0.011,-0.069,0.878,-5.371,-12.817,2.563
0.003,-0.060,0.891,-10.559,-13.000,0.793
0.013,-0.064,0.926,-12.756,-15.991,-2.136
0.024,-0.088,0.957,-16.113,-18.433,-3.845
0.020,-0.103,1.003,-16.846,-18.738,-3.906
0.007,-0.104,1.044,-17.456,-17.151,-2.563
0.014,-0.091,1.080,-20.020,-11.902,-0.427
0.004,-0.106,1.074,-20.081,-6.836,3.052
-0.007,-0.108,1.051,-22.827,-1.892,3.235
-0.017,-0.112,1.024,-25.330,3.601,3.601
-0.002,-0.106,0.954,-27.954,7.263,4.272
0.013,-0.091,0.877,-28.687,7.751,4.883
0.014,-0.097,0.875,-26.184,6.042,5.127
0.011,-0.112,0.914,-24.902,3.418,4.089
0.007,-0.126,0.982,-21.484,-0.610,3.479
0.016,-0.132,1.029,-14.893,-4.089,2.075
0.002,-0.126,1.066,-8.850,-6.165,0.610
0.012,-0.178,1.020,0.610,-8.728,1.648
0.015,-0.112,1.031,12.207,-10.925,-3.662
0.013,-0.134,1.006,16.235,-9.399,2.319
-0.003,-0.142,0.972,12.634,-7.812,3.662
-0.006,-0.139,0.947,10.803,-5.859,3.784
-0.005,-0.145,0.904,8.972,-5.432,3.662
-0.003,-0.158,0.853,3.418,-6.165,3.784

-0.082,-0.438,3.084,122.253,0.427,-31.860
-0.087,-0.464,3.101,129.456,9.949,-27.771
-0.074,-0.542,2.988,132.141,29.114,-17.456
-0.071,-0.607,2.769,131.531,51.514,-11.108
-0.078,-0.660,2.471,122.620,71.655,-4.395
-0.042,-0.627,2.049,109.863,81.482,1.831
0.011,-0.579,1.570,106.262,75.867,9.216
0.078,-0.499,1.072,106.873,55.420,15.198
0.066,-0.457,0.708,108.643,28.687,17.639
0.072,-0.453,0.505,109.192,6.470,17.883
0.062,-0.411,0.456,100.220,-8.362,13.916
-0.017,-0.369,0.579,78.918,0.122,-3.357
-0.097,-0.286,0.764,46.448,40.100,-16.113
0.021,-0.106,0.502,47.791,67.322,-17.334
0.237,0.130,0.050,68.359,78.979,-31.616
0.306,0.196,-0.540,93.018,66.162,-42.480
0.323,0.179,-0.837,140.198,43.457,-55.847
0.210,-0.031,-0.775,173.096,22.278,-64.575
0.044,-0.333,-0.667,158.081,9.460,-62.988
-0.034,-0.493,-0.648,117.004,14.893,-47.241
-0.026,-0.426,-0.678,64.819,16.907,-30.701
-0.002,-0.242,-0.548,36.194,14.771,-20.996
0.010,-0.026,-0.361,26.306,10.925,-17.883
0.036,0.103,-0.311,30.701,4.150,-17.029
0.053,0.157,-0.331,37.109,-1.160,-20.874
0.040,0.125,-0.336,35.217,-6.653,-25.940
0.001,0.033,-0.312,30.640,-11.169,-26.672
-0.045,-0.029,-0.221,31.860,-14.465,-20.935
-0.077,-0.069,-0.127,23.743,-14.160,-9.583
-0.102,-0.054,-0.028,5.798,-7.690,3.174
-0.100,0.005,0.090,-8.789,-1.648,15.930
-0.099,0.085,0.208,-19.775,2.258,24.170
-0.037,0.209,0.302,-25.513,3.479,27.527
0.000,0.331,0.369,-34.058,1.770,27.100
0.007,0.408,0.453,-41.199,-2.197,18.433
-0.032,0.372,0.536,-43.884,-8.423,10.376
-0.060,0.332,0.622,-42.786,-15.625,4.211
-0.083,0.248,0.729,-37.720,-20.813,0.793
-0.110,0.150,0.833,-32.043,-22.156,2.075
-0.109,0.067,0.889,-33.386,-18.921,6.287
-0.083,0.018,0.884,-38.208,-15.015,9.644
-0.051,0.045,0.899,-48.340,-14.282,7.751
-0.038,-0.027,0.848,-53.528,-13.000,14.771
-0.027,-0.013,0.834,-46.448,-16.785,13.184
0.024,0.029,0.817,-43.884,-22.278,16.113
0.028,0.070,0.849,-41.870,-28.992,14.221
0.028,0.104,0.952,-37.964,-30.640,12.512
0.003,0.102,1.047,-37.598,-27.893,10.376
-0.026,0.091,1.102,-35.645,-22.827,12.512
-0.035,0.051,1.083,-29.419,-13.062,16.174
-0.050,0.073,1.065,-21.729,0.732,13.855
-0.029,0.043,0.981,-23.804,9.583,19.165
-0.002,0.041,0.888,-18.616,7.507,20.020
-0.003,0.021,0.889,-8.911,4.700,21.301
-0.009,-0.028,0.860,-9.583,-1.282,21.545
0.011,-0.050,0.839,-9.460,-11.597,21.301
0.007,-0.155,0.815,-17.029,-2.319,32.532
0.024,-0.017,0.918,-20.874,-12.695,21.790
0.040,-0.002,0.948,-16.724,-17.700,19.470
0.027,-0.012,0.953,-16.663,-21.973,14.526
0.053,0.037,1.001,-18.738,-22.949,11.047
0.078,0.037,1.042,-17.273,-18.555,12.085
0.036,0.003,1.072,-15.991,-18.555,12.024
0.006,-0.024,1.076,-21.667,-13.428,12.573
-0.037,-0.022,1.075,-24.048,-12.024,14.832
-0.039,0.002,1.024,-26.978,-8.911,16.479
-0.028,0.042,0.955,-22.583,-10.986,20.386
-0.032,0.071,0.935,-18.250,-14.465,19.714
-0.030,0.060,0.944,-13.977,-18.005,21.057
-0.040,0.047,0.995,-12.085,-20.996,19.592
-0.051,0.054,1.062,-11.230,-20.081,20.020
-0.040,0.075,1.091,-12.268,-18.127,21.240
-0.037,0.081,1.059,-19.836,-17.273,18.555
-0.021,0.129,1.006,-26.428,-18.494,15.808
-0.026,0.136,0.994,-25.330,-20.447,14.343
-0.029,0.118,1.013,-22.034,-21.362,15.564
-0.036,0.099,1.038,-18.311,-19.104,16.541
-0.016,0.073,1.036,-13.367,-15.015,19.714
-0.015,0.038,1.034,-12.939,-12.207,20.752
-0.021,0.005,1.024,-14.465,-5.920,21.057
-0.022,-0.024,0.982,-19.409,-1.404,22.583
-0.017,-0.021,0.957,-23.437,-0.732,22.644
0.005,-0.011,0.958,-25.635,-2.197,22.522
0.028,-0.002,1.002,-25.269,-5.981,20.752
0.041,0.006,1.100,-20.386,-9.583,18.127
0.056,0.008,1.150,-14.526,-10.071,14.526
0.073,-0.006,1.151,-9.216,-9.705,12.268
0.077,-0.010,1.146,-2.075,-8.179,9.155
0.074,-0.036,1.132,5.615,-5.981,8.240
0.062,-0.055,1.084,7.324,-2.930,7.568
0.049,-0.061,1.021,8.057,0.732,7.996
0.023,-0.052,0.992,7.202,3.662,8.545
0.018,-0.020,0.945,1.831,5.981,9.094
0.041,0.023,0.870,-0.854,6.653,10.437
0.068,0.038,0.817,-3.601,4.333,10.925
0.085,0.040,0.820,-2.991,-0.916,10.315
0.054,0.026,0.917,-0.488,-5.188,9.888
0.039,0.024,1.003,3.540,-6.531,7.935
0.027,0.013,1.035,3.357,-6.042,6.470
0.037,0.017,1.017,5.981,-5.371,5.066
0.028,-0.007,0.997,4.150,-2.563,2.991
0.024,-0.017,0.956,1.282,-0.977,2.319
0.028,-0.020,0.904,-0.427,0.916,2.930
0.038,-0.015,0.846,-3.540,1.770,3.357
0.044,-0.011,0.789,-9.583,1.160,2.502
0.032,-0.022,0.800,-11.597,-0.122,1.892
0.033,-0.010,0.838,-10.010,-1.038,-1.770
0.035,-0.017,0.898,-6.104,-3.174,0.671
0.044,-0.020,0.960,-6.592,-4.944,1.038
0.023,-0.007,0.999,-7.751,-3.845,3.906
0.038,-0.025,1.017,-4.272,-3.052,3.723
0.024,-0.036,1.062,-3.723,-1.099,1.404
0.008,-0.060,1.037,-1.831,0.854,2.991
0.031,-0.007,1.014,1.465,4.517,5.188
0.048,-0.012,0.940,-4.700,5.615,7.202
0.052,0.018,0.882,-7.874,4.089,5.066
0.058,0.017,0.858,-2.869,-0.977,4.822
0.053,0.017,0.850,-0.244,-7.202,4.395
0.047,-0.046,0.884,1.831,-11.292,5.005

0.067,-0.786,2.649,131.531,43.701,-34.241
0.070,-0.913,2.425,132.141,59.814,-30.151
0.101,-0.913,2.043,123.474,75.684,-23.804
0.135,-0.814,1.591,108.276,85.632,-16.724
0.190,-0.687,1.104,95.642,82.642,-10.864
0.201,-0.532,0.742,97.046,70.557,-5.249
0.211,-0.438,0.459,94.849,57.068,-3.418
0.122,-0.322,0.394,81.299,51.880,-17.639
0.016,-0.197,0.428,74.951,57.678,-35.828
-0.025,-0.071,0.344,92.834,64.148,-44.006
0.060,0.008,0.060,116.577,63.538,-48.889
0.104,-0.001,-0.216,133.545,62.195,-61.340
0.116,-0.086,-0.405,147.583,60.547,-68.970
0.086,-0.152,-0.530,144.836,58.655,-74.036
0.090,-0.212,-0.658,127.930,56.396,-61.462
0.060,-0.231,-0.697,106.262,47.852,-51.147
0.022,-0.194,-0.632,89.294,36.926,-35.583
-0.015,-0.112,-0.572,71.045,26.245,-20.569
0.034,0.009,-0.546,49.438,19.043,-17.456
0.038,0.152,-0.532,24.048,8.118,-12.207
0.006,0.246,-0.400,10.864,0.488,-14.893
-0.063,0.290,-0.202,16.479,-4.761,-17.578
-0.063,0.308,-0.057,27.527,-4.211,-19.714
-0.089,0.280,0.031,38.086,-3.723,-16.113
-0.083,0.205,0.046,39.978,-2.197,-12.085
-0.078,0.083,0.059,34.058,-2.930,-6.958
-0.072,0.015,0.141,21.240,-4.089,-4.211
-0.093,-0.016,0.205,10.132,-5.188,0.793
-0.131,-0.022,0.331,-14.038,-9.216,11.719
-0.131,0.031,0.455,-29.419,-11.719,21.484
-0.121,0.104,0.545,-40.039,-14.526,27.710
-0.136,0.153,0.641,-43.091,-16.602,30.334
-0.128,0.201,0.697,-41.748,-19.653,30.090
-0.115,0.218,0.711,-37.231,-23.560,26.672
-0.109,0.189,0.748,-30.762,-27.222,19.958
-0.119,0.090,0.804,-24.902,-28.992,15.686
-0.109,0.004,0.831,-27.161,-27.588,13.733
-0.084,-0.055,0.863,-29.907,-27.710,15.198
-0.066,-0.092,0.925,-27.893,-28.687,18.372
-0.062,-0.110,1.000,-25.452,-27.405,21.973
-0.040,-0.110,1.002,-25.513,-24.048,25.085
0.001,-0.039,0.939,-29.297,-22.644,22.888
0.018,0.035,0.916,-33.081,-23.010,19.165
-0.029,0.048,0.920,-32.715,-26.489,17.029
-0.042,0.085,0.930,-26.489,-28.137,13.000
-0.037,0.099,0.935,-20.996,-30.090,13.367
-0.033,0.119,0.939,-19.104,-29.297,13.000
-0.052,0.095,0.964,-19.043,-26.184,14.526
-0.071,0.065,0.994,-23.315,-21.973,14.587
-0.075,0.059,1.008,-22.827,-18.127,15.991
-0.073,0.048,0.981,-21.423,-13.794,18.738
-0.074,0.060,0.927,-24.719,-10.010,19.531
-0.055,0.061,0.854,-28.687,-8.850,20.142
-0.031,0.073,0.805,-30.457,-12.207,17.883
-0.011,0.101,0.793,-29.480,-18.982,15.442
-0.017,0.107,0.879,-24.170,-26.672,15.503
-0.032,0.106,0.999,-22.278,-30.273,15.747
-0.041,0.125,1.086,-21.729,-29.114,15.808
-0.046,0.110,1.137,-23.743,-25.330,16.113
-0.047,0.091,1.125,-26.672,-21.545,16.479
-0.047,0.064,1.078,-29.297,-16.602,17.761
-0.024,0.057,1.003,-33.875,-13.428,18.188
-0.007,0.061,0.957,-32.715,-13.489,19.165
-0.002,0.059,0.938,-28.076,-14.221,20.935
0.014,0.055,0.934,-24.841,-15.381,19.531
-0.000,0.058,0.993,-21.423,-15.503,16.174
-0.004,0.048,1.026,-20.142,-15.259,14.038
0.004,0.057,1.024,-18.494,-14.160,11.597
0.021,0.070,1.011,-16.846,-14.404,6.836
0.029,0.051,1.005,-10.803,-15.808,4.578
0.004,-0.014,1.064,-5.005,-16.663,3.235
-0.020,-0.073,1.090,-5.676,-12.634,4.944
-0.008,-0.085,1.025,-10.681,-7.202,7.996
0.015,-0.080,0.952,-15.747,-3.906,10.315
0.020,-0.085,0.920,-18.433,-4.211,11.902
0.024,-0.093,0.903,-17.029,-7.263,13.855
0.019,-0.088,0.928,-15.747,-9.827,14.099
0.011,-0.074,0.959,-14.343,-10.986,14.099
0.011,-0.066,0.973,-12.939,-11.902,13.489
-0.002,-0.058,1.000,-11.475,-12.024,11.902
0.007,-0.048,1.032,-10.681,-11.353,10.742
0.011,-0.053,1.065,-9.644,-10.376,9.705
0.012,-0.072,1.075,-9.399,-9.399,11.047
0.027,-0.069,1.049,-12.329,-7.996,11.963
0.033,-0.065,1.017,-15.076,-6.958,13.428
0.031,-0.067,1.010,-16.113,-5.554,14.099
0.031,-0.063,0.988,-16.357,-3.296,14.587
0.035,-0.050,0.954,-19.409,-0.427,13.428
0.024,-0.042,0.944,-17.639,1.465,12.146
0.025,-0.042,0.915,-15.076,1.282,11.230
0.033,-0.034,0.877,-11.597,-0.427,8.728
0.030,-0.047,0.877,-5.859,-5.310,6.714
0.014,-0.097,0.904,-1.648,-8.972,5.737
-0.004,-0.141,0.946,-2.258,-9.766,6.287
0.005,-0.135,0.947,-8.057,-7.690,7.751
0.011,-0.120,0.940,-12.451,-4.822,9.827
0.016,-0.109,0.931,-15.686,-2.625,11.963
0.030,-0.078,0.917,-19.287,-1.038,12.329
0.043,-0.051,0.901,-18.433,-1.282,11.475
0.038,-0.053,0.912,-13.062,-2.991,10.254
0.029,-0.080,0.949,-9.399,-3.540,8.728
0.021,-0.099,0.978,-6.042,-4.333,8.850
0.030,-0.106,0.969,-6.409,-3.113,9.705
0.043,-0.097,0.934,-8.972,-3.357,9.705
0.046,-0.093,0.906,-10.193,-4.639,9.705
0.032,-0.087,0.929,-9.338,-5.432,9.033
0.046,-0.077,0.901,-9.888,-8.545,9.644
0.057,-0.049,0.894,-8.789,-10.254,8.545
0.056,-0.043,0.913,-8.118,-12.268,6.958
0.034,-0.063,0.984,-5.249,-11.108,5.493
0.027,-0.081,1.008,-3.113,-9.705,5.554
0.036,-0.092,1.000,-1.099,-7.751,5.676
0.037,-0.091,1.006,-0.183,-5.127,5.737
0.041,-0.099,0.974,-1.160,-3.418,6.104
0.047,-0.113,0.950,0.671,-2.991,7.751
0.049,-0.127,0.923,-2.686,-3.357,8.606
0.053,-0.125,0.888,-6.714,-4.272,9.399
0.054,-0.117,0.880,-7.080,-5.981,10.559
0.052,-0.109,0.885,-5.066,-7.751,12.390

-0.266,-0.320,3.085,34.851,-26.489,-32.532
-0.314,-0.345,3.202,44.373,-19.897,-29.114
-0.327,-0.394,3.235,58.105,0.427,-19.714
-0.208,-0.380,3.177,71.777,25.513,-10.254
-0.147,-0.435,2.947,69.458,48.218,0.244
0.003,-0.358,2.712,72.693,64.453,-3.052
0.140,-0.295,2.482,92.346,75.989,-4.272
0.247,-0.316,2.283,118.347,86.060,-8.240
0.319,-0.326,2.076,136.414,95.947,-15.686
0.375,-0.375,1.730,142.212,103.333,-22.217
0.434,-0.443,1.220,140.259,100.037,-27.344
0.453,-0.546,0.752,136.841,82.092,-26.123
0.376,-0.657,0.340,128.174,60.425,-26.794
0.292,-0.741,0.161,100.220,50.537,-23.926
0.114,-0.731,0.152,57.190,54.199,-24.414
-0.012,-0.539,0.141,22.644,65.430,-26.611
-0.002,-0.263,-0.053,11.658,69.275,-16.479
-0.006,-0.023,-0.150,26.367,64.575,-10.193
0.046,0.110,-0.408,48.706,51.880,-10.864
0.108,0.244,-0.578,73.975,41.748,-29.907
0.074,0.276,-0.693,65.491,37.659,-48.584
0.019,0.167,-0.784,56.335,30.762,-59.937
-0.084,0.024,-0.716,63.599,16.907,-59.937
-0.168,-0.129,-0.597,65.674,4.761,-48.401
-0.202,-0.148,-0.524,45.593,-1.099,-33.447
-0.149,-0.102,-0.533,13.123,-4.456,-22.705
-0.139,0.056,-0.431,-13.184,-10.132,-20.142
-0.125,0.170,-0.272,-21.057,-15.686,-15.564
-0.101,0.271,-0.095,-18.311,-19.287,-14.526
-0.071,0.315,0.024,-7.385,-21.057,-14.954
-0.030,0.317,0.078,4.089,-21.545,-16.052
-0.016,0.220,0.092,9.155,-21.973,-16.968
-0.030,0.095,0.164,10.620,-22.827,-16.235
-0.048,-0.007,0.245,1.282,-20.569,-12.451
-0.045,-0.063,0.303,-13.184,-19.348,-5.737
-0.039,-0.075,0.375,-24.292,-17.456,3.479
-0.023,-0.025,0.453,-33.630,-15.869,12.207
-0.013,0.049,0.538,-39.612,-14.771,17.334
0.000,0.118,0.580,-44.800,-14.709,16.846
0.005,0.157,0.596,-49.561,-16.418,11.902
-0.001,0.140,0.625,-40.771,-19.958,9.827
-0.004,0.107,0.689,-28.198,-25.574,8.667
-0.015,0.071,0.771,-20.325,-29.358,8.911
-0.033,0.023,0.880,-15.991,-30.762,9.644
-0.073,-0.030,0.968,-15.869,-29.114,10.010
-0.120,-0.099,1.026,-17.822,-25.146,12.878
-0.144,-0.150,0.996,-26.123,-20.508,17.395
-0.150,-0.150,0.916,-37.476,-18.005,20.996
-0.134,-0.112,0.853,-42.847,-17.883,24.841
-0.100,-0.049,0.781,-45.898,-21.057,25.879
-0.081,0.005,0.770,-40.466,-26.855,24.597
-0.090,0.049,0.846,-35.583,-30.396,20.569
-0.099,0.042,0.884,-33.447,-33.569,15.808
-0.114,0.070,0.979,-24.597,-37.476,12.573
-0.151,0.075,1.073,-14.587,-39.795,9.766
-0.179,0.043,1.120,-4.883,-38.269,13.428
